participant,trial,item,type,freq,length,word_length,response,rt
1.0,57.0,1.0,experimental,high,short,3.0,YES,117.58
1.0,59.0,2.0,experimental,high,short,4.0,YES,170.71
1.0,39.0,3.0,experimental,high,short,5.0,YES,174.26
1.0,96.0,4.0,experimental,high,short,5.0,YES,138.13
1.0,15.0,5.0,experimental,high,short,5.0,YES,156.87
1.0,58.0,6.0,experimental,high,short,3.0,YES,226.26
1.0,82.0,7.0,experimental,high,medium,9.0,YES,195.47
1.0,102.0,8.0,experimental,high,medium,6.0,YES,199.79
1.0,32.0,9.0,experimental,high,medium,7.0,YES,173.87
1.0,41.0,10.0,experimental,high,medium,9.0,YES,153.01999999999998
1.0,7.0,11.0,experimental,high,medium,10.0,YES,179.35
1.0,80.0,12.0,experimental,high,medium,7.0,YES,197.0
1.0,27.0,13.0,experimental,high,long,11.0,YES,164.07
1.0,69.0,14.0,experimental,high,long,13.0,YES,255.1
1.0,98.0,15.0,experimental,high,long,11.0,YES,204.23
1.0,36.0,16.0,experimental,high,long,14.0,YES,217.56
1.0,67.0,17.0,experimental,high,long,11.0,YES,275.53
1.0,63.0,18.0,experimental,high,long,14.0,YES,304.66
1.0,20.0,19.0,experimental,medium,short,4.0,YES,178.81
1.0,101.0,20.0,experimental,medium,short,4.0,YES,221.72
1.0,53.0,21.0,experimental,medium,short,3.0,YES,289.45
1.0,33.0,22.0,experimental,medium,short,3.0,YES,195.72
1.0,77.0,23.0,experimental,medium,short,3.0,YES,191.13
1.0,107.0,24.0,experimental,medium,short,5.0,YES,760.9
1.0,78.0,25.0,experimental,medium,medium,9.0,YES,309.07
1.0,50.0,26.0,experimental,medium,medium,7.0,YES,270.81
1.0,28.0,27.0,experimental,medium,medium,9.0,YES,280.1
1.0,97.0,28.0,experimental,medium,medium,8.0,YES,251.09
1.0,103.0,29.0,experimental,medium,medium,8.0,YES,341.77
1.0,79.0,30.0,experimental,medium,medium,7.0,YES,240.67
1.0,90.0,31.0,experimental,medium,long,16.0,YES,285.85
1.0,5.0,32.0,experimental,medium,long,14.0,YES,299.29
1.0,26.0,33.0,experimental,medium,long,15.0,YES,219.83
1.0,48.0,34.0,experimental,medium,long,14.0,YES,196.47
1.0,11.0,35.0,experimental,medium,long,16.0,NO,802.8199999999999
1.0,85.0,36.0,experimental,medium,long,15.0,YES,302.5
1.0,81.0,37.0,experimental,low,short,5.0,NO,185.98
1.0,87.0,38.0,experimental,low,short,3.0,YES,211.69
1.0,14.0,39.0,experimental,low,short,4.0,YES,298.11
1.0,13.0,40.0,experimental,low,short,5.0,YES,199.54
1.0,44.0,41.0,experimental,low,short,2.0,YES,763.76
1.0,75.0,42.0,experimental,low,short,2.0,YES,277.09000000000003
1.0,51.0,43.0,experimental,low,medium,7.0,YES,709.49
1.0,99.0,44.0,experimental,low,medium,8.0,YES,249.24
1.0,93.0,45.0,experimental,low,medium,7.0,YES,184.4
1.0,54.0,46.0,experimental,low,medium,6.0,YES,312.19
1.0,100.0,47.0,experimental,low,medium,9.0,YES,343.2
1.0,37.0,48.0,experimental,low,medium,6.0,YES,410.02
1.0,62.0,49.0,experimental,low,long,15.0,YES,145.03
1.0,29.0,50.0,experimental,low,long,11.0,YES,100.45
1.0,76.0,51.0,experimental,low,long,12.0,YES,167.55
1.0,92.0,52.0,experimental,low,long,11.0,YES,142.69
1.0,46.0,53.0,experimental,low,long,13.0,YES,123.15
1.0,106.0,54.0,experimental,low,long,14.0,YES,292.51
1.0,22.0,101.0,filler,,short,3.0,NO,179.91
1.0,84.0,102.0,filler,,short,2.0,NO,128.38
1.0,104.0,103.0,filler,,short,3.0,NO,159.67000000000002
1.0,88.0,104.0,filler,,short,5.0,NO,169.23
1.0,42.0,105.0,filler,,short,3.0,NO,180.38
1.0,8.0,106.0,filler,,short,3.0,NO,249.11
1.0,108.0,107.0,filler,,medium,8.0,NO,154.07999999999998
1.0,45.0,108.0,filler,,medium,7.0,NO,239.82
1.0,25.0,109.0,filler,,medium,8.0,NO,233.62
1.0,94.0,110.0,filler,,medium,6.0,NO,211.36
1.0,18.0,111.0,filler,,medium,8.0,NO,192.65
1.0,55.0,112.0,filler,,medium,9.0,NO,269.53
1.0,3.0,113.0,filler,,long,11.0,NO,175.96
1.0,34.0,114.0,filler,,long,15.0,NO,254.93
1.0,6.0,115.0,filler,,long,11.0,NO,203.74
1.0,30.0,116.0,filler,,long,11.0,NO,198.64
1.0,24.0,117.0,filler,,long,14.0,NO,238.17
1.0,47.0,118.0,filler,,long,14.0,NO,234.26
1.0,105.0,119.0,filler,,short,4.0,NO,111.87
1.0,64.0,120.0,filler,,short,4.0,NO,239.9
1.0,9.0,121.0,filler,,short,5.0,NO,258.53
1.0,89.0,122.0,filler,,short,2.0,NO,270.65999999999997
1.0,70.0,123.0,filler,,short,4.0,NO,212.58
1.0,40.0,124.0,filler,,short,3.0,NO,259.65
1.0,68.0,125.0,filler,,medium,9.0,NO,196.52
1.0,17.0,126.0,filler,,medium,10.0,NO,202.81
1.0,74.0,127.0,filler,,medium,10.0,NO,240.27
1.0,16.0,128.0,filler,,medium,6.0,NO,257.15
1.0,2.0,129.0,filler,,medium,9.0,NO,331.61
1.0,86.0,130.0,filler,,medium,7.0,NO,400.15
1.0,72.0,131.0,filler,,long,16.0,NO,238.55
1.0,31.0,132.0,filler,,long,15.0,NO,274.59000000000003
1.0,21.0,133.0,filler,,long,16.0,NO,352.71
1.0,73.0,134.0,filler,,long,11.0,NO,314.5
1.0,43.0,135.0,filler,,long,12.0,NO,237.32
1.0,60.0,136.0,filler,,long,15.0,NO,413.83
1.0,56.0,137.0,filler,,short,3.0,NO,373.06
1.0,95.0,138.0,filler,,short,3.0,NO,191.32
1.0,66.0,139.0,filler,,short,4.0,NO,208.26
1.0,83.0,140.0,filler,,short,3.0,NO,205.38
1.0,10.0,141.0,filler,,short,2.0,NO,177.33
1.0,91.0,142.0,filler,,short,2.0,NO,297.79
1.0,65.0,143.0,filler,,medium,8.0,NO,136.57
1.0,23.0,144.0,filler,,medium,10.0,NO,141.63
1.0,4.0,145.0,filler,,medium,7.0,NO,119.73
1.0,38.0,146.0,filler,,medium,6.0,NO,195.5
1.0,19.0,147.0,filler,,medium,8.0,NO,353.99
1.0,12.0,148.0,filler,,medium,6.0,NO,211.14
1.0,1.0,149.0,filler,,long,13.0,NO,612.6600000000001
1.0,49.0,150.0,filler,,long,12.0,NO,265.38
1.0,35.0,151.0,filler,,long,13.0,NO,289.52
1.0,61.0,152.0,filler,,long,13.0,NO,221.02
1.0,52.0,153.0,filler,,long,13.0,NO,277.15
1.0,71.0,154.0,filler,,long,11.0,YES,1023.37
2.0,41.0,1.0,experimental,high,short,2.0,YES,164.01999999999998
2.0,64.0,2.0,experimental,high,short,4.0,YES,152.20999999999998
2.0,67.0,3.0,experimental,high,short,4.0,YES,188.96
2.0,66.0,4.0,experimental,high,short,5.0,YES,101.84
2.0,29.0,5.0,experimental,high,short,5.0,YES,219.85
2.0,88.0,6.0,experimental,high,short,3.0,YES,226.96
2.0,94.0,7.0,experimental,high,medium,8.0,YES,157.03
2.0,65.0,8.0,experimental,high,medium,8.0,YES,174.7
2.0,60.0,9.0,experimental,high,medium,9.0,YES,189.1
2.0,78.0,10.0,experimental,high,medium,10.0,YES,163.74
2.0,73.0,11.0,experimental,high,medium,7.0,YES,215.83
2.0,16.0,12.0,experimental,high,medium,9.0,YES,255.0
2.0,25.0,13.0,experimental,high,long,12.0,YES,186.93
2.0,104.0,14.0,experimental,high,long,15.0,YES,186.21
2.0,27.0,15.0,experimental,high,long,13.0,YES,222.67
2.0,69.0,16.0,experimental,high,long,16.0,YES,227.96
2.0,17.0,17.0,experimental,high,long,15.0,YES,285.41999999999996
2.0,89.0,18.0,experimental,high,long,12.0,YES,246.7
2.0,55.0,19.0,experimental,medium,short,3.0,YES,122.64
2.0,22.0,20.0,experimental,medium,short,4.0,YES,268.25
2.0,63.0,21.0,experimental,medium,short,2.0,YES,229.52
2.0,53.0,22.0,experimental,medium,short,3.0,YES,135.5
2.0,10.0,23.0,experimental,medium,short,5.0,YES,290.65
2.0,32.0,24.0,experimental,medium,short,4.0,YES,284.76
2.0,6.0,25.0,experimental,medium,medium,9.0,YES,125.03
2.0,14.0,26.0,experimental,medium,medium,8.0,YES,205.76
2.0,103.0,27.0,experimental,medium,medium,8.0,YES,206.26
2.0,91.0,28.0,experimental,medium,medium,7.0,YES,281.65999999999997
2.0,47.0,29.0,experimental,medium,medium,9.0,YES,226.9
2.0,48.0,30.0,experimental,medium,medium,8.0,YES,285.61
2.0,36.0,31.0,experimental,medium,long,14.0,YES,476.53
2.0,108.0,32.0,experimental,medium,long,14.0,YES,179.33
2.0,40.0,33.0,experimental,medium,long,15.0,YES,823.45
2.0,13.0,34.0,experimental,medium,long,13.0,YES,226.04
2.0,107.0,35.0,experimental,medium,long,15.0,YES,243.03
2.0,30.0,36.0,experimental,medium,long,14.0,YES,532.76
2.0,26.0,37.0,experimental,low,short,3.0,YES,235.56
2.0,71.0,38.0,experimental,low,short,3.0,YES,303.03
2.0,54.0,39.0,experimental,low,short,2.0,YES,261.58000000000004
2.0,102.0,40.0,experimental,low,short,5.0,YES,148.38
2.0,68.0,41.0,experimental,low,short,2.0,YES,398.78
2.0,44.0,42.0,experimental,low,short,5.0,YES,249.1
2.0,34.0,43.0,experimental,low,medium,10.0,YES,576.3
2.0,90.0,44.0,experimental,low,medium,7.0,YES,228.26
2.0,106.0,45.0,experimental,low,medium,9.0,YES,420.87
2.0,28.0,46.0,experimental,low,medium,7.0,YES,602.49
2.0,8.0,47.0,experimental,low,medium,6.0,YES,272.02
2.0,45.0,48.0,experimental,low,medium,6.0,YES,334.45
2.0,21.0,49.0,experimental,low,long,15.0,YES,325.77
2.0,2.0,50.0,experimental,low,long,12.0,YES,149.88
2.0,11.0,51.0,experimental,low,long,11.0,YES,489.94
2.0,86.0,52.0,experimental,low,long,13.0,YES,163.86
2.0,72.0,53.0,experimental,low,long,14.0,YES,151.76
2.0,50.0,54.0,experimental,low,long,14.0,YES,810.94
2.0,75.0,101.0,filler,,short,3.0,NO,185.08
2.0,20.0,102.0,filler,,short,3.0,NO,117.68
2.0,82.0,103.0,filler,,short,3.0,NO,118.02
2.0,3.0,104.0,filler,,short,2.0,NO,148.32
2.0,74.0,105.0,filler,,short,5.0,NO,217.92
2.0,56.0,106.0,filler,,short,4.0,NO,244.91
2.0,83.0,107.0,filler,,medium,7.0,NO,237.14
2.0,38.0,108.0,filler,,medium,8.0,NO,234.46
2.0,59.0,109.0,filler,,medium,7.0,NO,171.65
2.0,96.0,110.0,filler,,medium,9.0,NO,256.24
2.0,51.0,111.0,filler,,medium,7.0,NO,229.9
2.0,99.0,112.0,filler,,medium,6.0,NO,250.14
2.0,105.0,113.0,filler,,long,15.0,NO,240.42
2.0,49.0,114.0,filler,,long,15.0,NO,191.25
2.0,24.0,115.0,filler,,long,14.0,NO,222.06
2.0,92.0,116.0,filler,,long,14.0,NO,205.28
2.0,77.0,117.0,filler,,long,11.0,NO,226.62
2.0,98.0,118.0,filler,,long,15.0,NO,274.46000000000004
2.0,12.0,119.0,filler,,short,5.0,NO,207.62
2.0,35.0,120.0,filler,,short,5.0,NO,219.95
2.0,33.0,121.0,filler,,short,5.0,NO,136.23000000000002
2.0,95.0,122.0,filler,,short,4.0,NO,267.64
2.0,7.0,123.0,filler,,short,4.0,NO,194.0
2.0,101.0,124.0,filler,,short,4.0,NO,592.3
2.0,85.0,125.0,filler,,medium,6.0,NO,207.14
2.0,52.0,126.0,filler,,medium,6.0,NO,286.61
2.0,9.0,127.0,filler,,medium,7.0,NO,595.78
2.0,18.0,128.0,filler,,medium,9.0,NO,205.52
2.0,93.0,129.0,filler,,medium,6.0,NO,299.31
2.0,15.0,130.0,filler,,medium,8.0,NO,449.04
2.0,4.0,131.0,filler,,long,12.0,NO,213.17
2.0,57.0,132.0,filler,,long,15.0,NO,289.23
2.0,23.0,133.0,filler,,long,14.0,NO,190.69
2.0,100.0,134.0,filler,,long,15.0,NO,295.44
2.0,62.0,135.0,filler,,long,15.0,NO,520.36
2.0,70.0,136.0,filler,,long,12.0,NO,272.48
2.0,31.0,137.0,filler,,short,5.0,NO,270.09000000000003
2.0,81.0,138.0,filler,,short,5.0,NO,862.8299999999999
2.0,46.0,139.0,filler,,short,4.0,NO,246.25
2.0,5.0,140.0,filler,,short,4.0,NO,211.41
2.0,84.0,141.0,filler,,short,2.0,NO,264.48
2.0,97.0,142.0,filler,,short,3.0,NO,313.31
2.0,61.0,143.0,filler,,medium,8.0,NO,325.65
2.0,39.0,144.0,filler,,medium,7.0,NO,617.11
2.0,42.0,145.0,filler,,medium,9.0,NO,370.68
2.0,19.0,146.0,filler,,medium,10.0,NO,143.05
2.0,80.0,147.0,filler,,medium,8.0,NO,318.48
2.0,58.0,148.0,filler,,medium,7.0,NO,438.11
2.0,87.0,149.0,filler,,long,14.0,YES,83.99000000000001
2.0,79.0,150.0,filler,,long,11.0,NO,165.95999999999998
2.0,37.0,151.0,filler,,long,13.0,NO,208.39
2.0,43.0,152.0,filler,,long,14.0,NO,308.25
2.0,1.0,153.0,filler,,long,15.0,NO,401.96
2.0,76.0,154.0,filler,,long,13.0,NO,379.6
3.0,30.0,1.0,experimental,high,short,2.0,YES,167.51
3.0,63.0,2.0,experimental,high,short,4.0,YES,125.67
3.0,61.0,3.0,experimental,high,short,2.0,YES,187.31
3.0,80.0,4.0,experimental,high,short,3.0,YES,173.34
3.0,52.0,5.0,experimental,high,short,5.0,YES,194.66
3.0,38.0,6.0,experimental,high,short,2.0,YES,238.4
3.0,51.0,7.0,experimental,high,medium,9.0,YES,196.04
3.0,10.0,8.0,experimental,high,medium,8.0,YES,172.98
3.0,91.0,9.0,experimental,high,medium,6.0,YES,151.68
3.0,99.0,10.0,experimental,high,medium,8.0,YES,141.75
3.0,87.0,11.0,experimental,high,medium,8.0,YES,232.71
3.0,89.0,12.0,experimental,high,medium,7.0,YES,234.9
3.0,15.0,13.0,experimental,high,long,13.0,YES,230.43
3.0,103.0,14.0,experimental,high,long,15.0,YES,229.51
3.0,45.0,15.0,experimental,high,long,15.0,YES,169.57
3.0,37.0,16.0,experimental,high,long,13.0,YES,202.78
3.0,57.0,17.0,experimental,high,long,14.0,YES,209.49
3.0,88.0,18.0,experimental,high,long,14.0,YES,262.65999999999997
3.0,78.0,19.0,experimental,medium,short,3.0,YES,161.84
3.0,27.0,20.0,experimental,medium,short,5.0,YES,113.77
3.0,55.0,21.0,experimental,medium,short,4.0,YES,179.78
3.0,74.0,22.0,experimental,medium,short,5.0,YES,272.13
3.0,64.0,23.0,experimental,medium,short,4.0,YES,164.89
3.0,44.0,24.0,experimental,medium,short,2.0,YES,314.28
3.0,29.0,25.0,experimental,medium,medium,7.0,YES,198.97
3.0,14.0,26.0,experimental,medium,medium,7.0,YES,251.57
3.0,25.0,27.0,experimental,medium,medium,9.0,YES,270.23
3.0,101.0,28.0,experimental,medium,medium,9.0,YES,290.48
3.0,108.0,29.0,experimental,medium,medium,6.0,YES,205.46
3.0,65.0,30.0,experimental,medium,medium,9.0,YES,499.28999999999996
3.0,105.0,31.0,experimental,medium,long,16.0,YES,216.54
3.0,7.0,32.0,experimental,medium,long,14.0,YES,321.95
3.0,94.0,33.0,experimental,medium,long,12.0,YES,185.55
3.0,33.0,34.0,experimental,medium,long,13.0,YES,246.62
3.0,77.0,35.0,experimental,medium,long,16.0,YES,481.29
3.0,86.0,36.0,experimental,medium,long,15.0,YES,719.1600000000001
3.0,98.0,37.0,experimental,low,short,4.0,YES,212.33
3.0,71.0,38.0,experimental,low,short,5.0,YES,126.14
3.0,31.0,39.0,experimental,low,short,5.0,YES,122.34
3.0,100.0,40.0,experimental,low,short,4.0,YES,380.72
3.0,95.0,41.0,experimental,low,short,3.0,YES,151.70999999999998
3.0,24.0,42.0,experimental,low,short,3.0,YES,398.12
3.0,96.0,43.0,experimental,low,medium,9.0,YES,206.56
3.0,66.0,44.0,experimental,low,medium,7.0,YES,226.48
3.0,16.0,45.0,experimental,low,medium,7.0,YES,872.99
3.0,21.0,46.0,experimental,low,medium,6.0,YES,209.66
3.0,106.0,47.0,experimental,low,medium,9.0,YES,504.84
3.0,102.0,48.0,experimental,low,medium,8.0,YES,437.49
3.0,40.0,49.0,experimental,low,long,12.0,YES,113.14
3.0,97.0,50.0,experimental,low,long,13.0,YES,305.32
3.0,3.0,51.0,experimental,low,long,11.0,YES,340.05
3.0,92.0,52.0,experimental,low,long,14.0,YES,194.74
3.0,76.0,53.0,experimental,low,long,11.0,YES,201.14
3.0,72.0,54.0,experimental,low,long,14.0,YES,323.37
3.0,59.0,101.0,filler,,short,4.0,NO,183.99
3.0,36.0,102.0,filler,,short,4.0,NO,160.75
3.0,39.0,103.0,filler,,short,4.0,NO,125.68
3.0,68.0,104.0,filler,,short,4.0,NO,187.21
3.0,69.0,105.0,filler,,short,4.0,NO,201.17
3.0,79.0,106.0,filler,,short,3.0,NO,241.91
3.0,9.0,107.0,filler,,medium,6.0,NO,165.45
3.0,48.0,108.0,filler,,medium,8.0,NO,222.26
3.0,90.0,109.0,filler,,medium,7.0,NO,177.66
3.0,53.0,110.0,filler,,medium,9.0,NO,224.36
3.0,47.0,111.0,filler,,medium,9.0,NO,225.79
3.0,17.0,112.0,filler,,medium,8.0,NO,293.37
3.0,28.0,113.0,filler,,long,12.0,NO,234.58
3.0,8.0,114.0,filler,,long,13.0,NO,212.2
3.0,49.0,115.0,filler,,long,12.0,NO,222.24
3.0,41.0,116.0,filler,,long,13.0,NO,204.07
3.0,50.0,117.0,filler,,long,15.0,NO,281.73
3.0,12.0,118.0,filler,,long,11.0,NO,287.14
3.0,70.0,119.0,filler,,short,5.0,NO,171.89
3.0,60.0,120.0,filler,,short,3.0,NO,150.82
3.0,46.0,121.0,filler,,short,4.0,NO,196.15
3.0,19.0,122.0,filler,,short,3.0,NO,223.36
3.0,26.0,123.0,filler,,short,5.0,NO,181.58
3.0,75.0,124.0,filler,,short,5.0,NO,192.94
3.0,1.0,125.0,filler,,medium,6.0,NO,300.12
3.0,42.0,126.0,filler,,medium,7.0,NO,269.01
3.0,35.0,127.0,filler,,medium,6.0,NO,212.94
3.0,5.0,128.0,filler,,medium,9.0,NO,202.78
3.0,73.0,129.0,filler,,medium,7.0,NO,337.84
3.0,32.0,130.0,filler,,medium,7.0,NO,829.22
3.0,104.0,131.0,filler,,long,14.0,NO,194.53
3.0,62.0,132.0,filler,,long,14.0,NO,292.69
3.0,6.0,133.0,filler,,long,13.0,NO,173.52
3.0,54.0,134.0,filler,,long,14.0,NO,210.13
3.0,81.0,135.0,filler,,long,12.0,NO,263.15999999999997
3.0,2.0,136.0,filler,,long,14.0,NO,400.41
3.0,20.0,137.0,filler,,short,4.0,NO,178.63
3.0,34.0,138.0,filler,,short,4.0,NO,181.26
3.0,11.0,139.0,filler,,short,2.0,NO,274.08000000000004
3.0,58.0,140.0,filler,,short,4.0,NO,213.99
3.0,67.0,141.0,filler,,short,4.0,NO,399.62
3.0,4.0,142.0,filler,,short,2.0,NO,252.92
3.0,13.0,143.0,filler,,medium,10.0,NO,162.51999999999998
3.0,43.0,144.0,filler,,medium,7.0,NO,299.75
3.0,22.0,145.0,filler,,medium,9.0,NO,208.11
3.0,18.0,146.0,filler,,medium,8.0,NO,108.61
3.0,23.0,147.0,filler,,medium,8.0,NO,203.12
3.0,84.0,148.0,filler,,medium,8.0,NO,806.01
3.0,83.0,149.0,filler,,long,12.0,NO,269.89
3.0,56.0,150.0,filler,,long,16.0,NO,152.26
3.0,93.0,151.0,filler,,long,12.0,NO,295.12
3.0,85.0,152.0,filler,,long,12.0,NO,384.79
3.0,82.0,153.0,filler,,long,15.0,NO,323.47
3.0,107.0,154.0,filler,,long,14.0,NO,189.36
4.0,65.0,1.0,experimental,high,short,3.0,YES,134.38
4.0,6.0,2.0,experimental,high,short,3.0,YES,128.66
4.0,32.0,3.0,experimental,high,short,4.0,YES,111.49
4.0,75.0,4.0,experimental,high,short,4.0,YES,142.39
4.0,81.0,5.0,experimental,high,short,2.0,YES,120.46
4.0,55.0,6.0,experimental,high,short,4.0,YES,210.37
4.0,4.0,7.0,experimental,high,medium,10.0,YES,200.96
4.0,30.0,8.0,experimental,high,medium,9.0,YES,197.92
4.0,70.0,9.0,experimental,high,medium,7.0,YES,131.26999999999998
4.0,73.0,10.0,experimental,high,medium,6.0,YES,148.42000000000002
4.0,88.0,11.0,experimental,high,medium,8.0,YES,187.01
4.0,31.0,12.0,experimental,high,medium,8.0,YES,202.48
4.0,98.0,13.0,experimental,high,long,16.0,YES,224.21
4.0,15.0,14.0,experimental,high,long,11.0,YES,161.84
4.0,108.0,15.0,experimental,high,long,13.0,YES,183.9
4.0,57.0,16.0,experimental,high,long,12.0,YES,217.46
4.0,94.0,17.0,experimental,high,long,14.0,YES,254.85
4.0,46.0,18.0,experimental,high,long,14.0,YES,313.36
4.0,69.0,19.0,experimental,medium,short,3.0,YES,111.45
4.0,101.0,20.0,experimental,medium,short,5.0,YES,121.76
4.0,62.0,21.0,experimental,medium,short,4.0,YES,179.0
4.0,107.0,22.0,experimental,medium,short,4.0,YES,133.64
4.0,52.0,23.0,experimental,medium,short,5.0,YES,188.4
4.0,105.0,24.0,experimental,medium,short,5.0,YES,310.03
4.0,43.0,25.0,experimental,medium,medium,7.0,YES,210.18
4.0,37.0,26.0,experimental,medium,medium,10.0,YES,117.27
4.0,89.0,27.0,experimental,medium,medium,6.0,YES,212.37
4.0,90.0,28.0,experimental,medium,medium,7.0,YES,176.34
4.0,96.0,29.0,experimental,medium,medium,8.0,YES,205.64
4.0,24.0,30.0,experimental,medium,medium,9.0,YES,320.64
4.0,85.0,31.0,experimental,medium,long,14.0,YES,307.5
4.0,2.0,32.0,experimental,medium,long,14.0,YES,312.7
4.0,76.0,33.0,experimental,medium,long,16.0,YES,339.39
4.0,92.0,34.0,experimental,medium,long,11.0,YES,363.39
4.0,44.0,35.0,experimental,medium,long,11.0,YES,197.55
4.0,91.0,36.0,experimental,medium,long,11.0,YES,740.69
4.0,99.0,37.0,experimental,low,short,3.0,YES,359.91
4.0,39.0,38.0,experimental,low,short,3.0,YES,128.56
4.0,42.0,39.0,experimental,low,short,5.0,YES,561.99
4.0,56.0,40.0,experimental,low,short,5.0,YES,111.05
4.0,71.0,41.0,experimental,low,short,4.0,YES,335.29
4.0,22.0,42.0,experimental,low,short,3.0,YES,408.29
4.0,54.0,43.0,experimental,low,medium,9.0,YES,158.07999999999998
4.0,12.0,44.0,experimental,low,medium,8.0,YES,376.83
4.0,18.0,45.0,experimental,low,medium,7.0,YES,235.67
4.0,8.0,46.0,experimental,low,medium,8.0,YES,261.88
4.0,10.0,47.0,experimental,low,medium,7.0,YES,263.62
4.0,17.0,48.0,experimental,low,medium,7.0,YES,1033.72
4.0,59.0,49.0,experimental,low,long,14.0,YES,489.1600000000001
4.0,51.0,50.0,experimental,low,long,12.0,YES,281.09000000000003
4.0,20.0,51.0,experimental,low,long,14.0,YES,538.3299999999999
4.0,61.0,52.0,experimental,low,long,14.0,YES,687.1700000000001
4.0,95.0,53.0,experimental,low,long,15.0,YES,239.15
4.0,25.0,54.0,experimental,low,long,14.0,YES,456.38
4.0,38.0,101.0,filler,,short,3.0,NO,111.45
4.0,11.0,102.0,filler,,short,2.0,NO,163.5
4.0,14.0,103.0,filler,,short,4.0,NO,145.28
4.0,66.0,104.0,filler,,short,3.0,NO,129.28
4.0,106.0,105.0,filler,,short,3.0,NO,148.61
4.0,58.0,106.0,filler,,short,3.0,NO,189.39
4.0,72.0,107.0,filler,,medium,7.0,NO,211.76
4.0,60.0,108.0,filler,,medium,9.0,NO,221.88
4.0,97.0,109.0,filler,,medium,7.0,NO,231.5
4.0,80.0,110.0,filler,,medium,10.0,NO,229.95
4.0,13.0,111.0,filler,,medium,7.0,NO,279.95
4.0,50.0,112.0,filler,,medium,10.0,NO,270.03
4.0,21.0,113.0,filler,,long,15.0,NO,160.31
4.0,104.0,114.0,filler,,long,15.0,NO,242.33
4.0,78.0,115.0,filler,,long,14.0,NO,176.91
4.0,63.0,116.0,filler,,long,13.0,NO,195.74
4.0,35.0,117.0,filler,,long,12.0,NO,221.0
4.0,29.0,118.0,filler,,long,15.0,NO,306.76
4.0,9.0,119.0,filler,,short,2.0,NO,103.57
4.0,47.0,120.0,filler,,short,2.0,NO,253.86
4.0,68.0,121.0,filler,,short,3.0,NO,147.26999999999998
4.0,83.0,122.0,filler,,short,3.0,NO,218.44
4.0,33.0,123.0,filler,,short,5.0,NO,285.68
4.0,36.0,124.0,filler,,short,4.0,NO,222.55
4.0,45.0,125.0,filler,,medium,7.0,NO,284.15
4.0,53.0,126.0,filler,,medium,10.0,NO,545.15
4.0,64.0,127.0,filler,,medium,9.0,NO,229.14
4.0,84.0,128.0,filler,,medium,8.0,NO,431.76
4.0,102.0,129.0,filler,,medium,7.0,NO,227.02
4.0,16.0,130.0,filler,,medium,7.0,NO,412.11
4.0,27.0,131.0,filler,,long,14.0,NO,273.52
4.0,86.0,132.0,filler,,long,15.0,NO,327.15
4.0,77.0,133.0,filler,,long,14.0,NO,233.03
4.0,5.0,134.0,filler,,long,12.0,NO,286.62
4.0,28.0,135.0,filler,,long,11.0,NO,320.04
4.0,48.0,136.0,filler,,long,14.0,NO,370.54
4.0,41.0,137.0,filler,,short,5.0,NO,779.5699999999999
4.0,1.0,138.0,filler,,short,3.0,YES,905.0899999999999
4.0,3.0,139.0,filler,,short,3.0,NO,354.87
4.0,7.0,140.0,filler,,short,4.0,NO,211.69
4.0,23.0,141.0,filler,,short,2.0,NO,250.65
4.0,82.0,142.0,filler,,short,4.0,NO,619.74
4.0,34.0,143.0,filler,,medium,6.0,NO,239.53
4.0,100.0,144.0,filler,,medium,7.0,NO,176.88
4.0,74.0,145.0,filler,,medium,7.0,NO,134.61
4.0,87.0,146.0,filler,,medium,10.0,NO,296.92
4.0,93.0,147.0,filler,,medium,8.0,NO,668.79
4.0,103.0,148.0,filler,,medium,9.0,NO,579.81
4.0,67.0,149.0,filler,,long,15.0,NO,92.87
4.0,26.0,150.0,filler,,long,14.0,NO,112.07
4.0,79.0,151.0,filler,,long,15.0,NO,212.38
4.0,19.0,152.0,filler,,long,15.0,NO,242.84
4.0,49.0,153.0,filler,,long,16.0,NO,140.76
4.0,40.0,154.0,filler,,long,15.0,NO,277.05
5.0,18.0,1.0,experimental,high,short,2.0,YES,164.94
5.0,77.0,2.0,experimental,high,short,3.0,YES,180.83
5.0,48.0,3.0,experimental,high,short,4.0,YES,146.86
5.0,61.0,4.0,experimental,high,short,4.0,YES,136.05
5.0,56.0,5.0,experimental,high,short,2.0,YES,196.52
5.0,10.0,6.0,experimental,high,short,2.0,YES,195.7
5.0,104.0,7.0,experimental,high,medium,6.0,YES,151.47
5.0,6.0,8.0,experimental,high,medium,7.0,YES,152.95
5.0,17.0,9.0,experimental,high,medium,9.0,YES,191.36
5.0,30.0,10.0,experimental,high,medium,9.0,YES,164.26
5.0,88.0,11.0,experimental,high,medium,8.0,YES,236.01
5.0,26.0,12.0,experimental,high,medium,9.0,YES,197.05
5.0,27.0,13.0,experimental,high,long,14.0,YES,192.99
5.0,19.0,14.0,experimental,high,long,16.0,YES,166.5
5.0,86.0,15.0,experimental,high,long,16.0,YES,240.83
5.0,101.0,16.0,experimental,high,long,11.0,YES,229.72
5.0,53.0,17.0,experimental,high,long,12.0,YES,210.38
5.0,11.0,18.0,experimental,high,long,16.0,YES,301.49
5.0,96.0,19.0,experimental,medium,short,5.0,YES,270.69
5.0,29.0,20.0,experimental,medium,short,5.0,YES,244.1
5.0,13.0,21.0,experimental,medium,short,2.0,YES,240.27
5.0,78.0,22.0,experimental,medium,short,3.0,YES,98.91
5.0,35.0,23.0,experimental,medium,short,3.0,YES,245.85
5.0,8.0,24.0,experimental,medium,short,3.0,YES,327.32
5.0,64.0,25.0,experimental,medium,medium,10.0,YES,301.49
5.0,52.0,26.0,experimental,medium,medium,10.0,YES,238.73
5.0,102.0,27.0,experimental,medium,medium,9.0,YES,153.44
5.0,24.0,28.0,experimental,medium,medium,8.0,YES,184.91
5.0,67.0,29.0,experimental,medium,medium,8.0,YES,210.27
5.0,90.0,30.0,experimental,medium,medium,7.0,YES,311.49
5.0,83.0,31.0,experimental,medium,long,15.0,YES,159.55
5.0,28.0,32.0,experimental,medium,long,13.0,YES,304.5
5.0,108.0,33.0,experimental,medium,long,11.0,YES,189.6
5.0,66.0,34.0,experimental,medium,long,13.0,YES,338.29
5.0,20.0,35.0,experimental,medium,long,15.0,YES,353.73
5.0,14.0,36.0,experimental,medium,long,13.0,YES,427.4
5.0,2.0,37.0,experimental,low,short,2.0,YES,151.91
5.0,12.0,38.0,experimental,low,short,4.0,YES,372.08
5.0,46.0,39.0,experimental,low,short,2.0,YES,207.35
5.0,51.0,40.0,experimental,low,short,2.0,YES,894.69
5.0,44.0,41.0,experimental,low,short,3.0,YES,153.79000000000002
5.0,84.0,42.0,experimental,low,short,3.0,YES,156.79000000000002
5.0,45.0,43.0,experimental,low,medium,8.0,YES,937.11
5.0,105.0,44.0,experimental,low,medium,9.0,YES,181.05
5.0,4.0,45.0,experimental,low,medium,7.0,YES,143.4
5.0,82.0,46.0,experimental,low,medium,8.0,YES,657.27
5.0,54.0,47.0,experimental,low,medium,9.0,YES,569.29
5.0,91.0,48.0,experimental,low,medium,7.0,YES,1108.88
5.0,69.0,49.0,experimental,low,long,14.0,YES,267.61
5.0,80.0,50.0,experimental,low,long,15.0,YES,137.36
5.0,68.0,51.0,experimental,low,long,12.0,YES,174.18
5.0,100.0,52.0,experimental,low,long,16.0,YES,312.23
5.0,103.0,53.0,experimental,low,long,15.0,YES,176.06
5.0,99.0,54.0,experimental,low,long,11.0,YES,485.78
5.0,9.0,101.0,filler,,short,3.0,NO,149.31
5.0,62.0,102.0,filler,,short,2.0,NO,202.82
5.0,63.0,103.0,filler,,short,4.0,NO,129.45
5.0,3.0,104.0,filler,,short,3.0,NO,163.98000000000002
5.0,89.0,105.0,filler,,short,4.0,NO,219.11
5.0,85.0,106.0,filler,,short,2.0,NO,197.49
5.0,92.0,107.0,filler,,medium,6.0,NO,244.7
5.0,107.0,108.0,filler,,medium,7.0,NO,170.05
5.0,49.0,109.0,filler,,medium,8.0,NO,229.37
5.0,60.0,110.0,filler,,medium,8.0,NO,189.83
5.0,50.0,111.0,filler,,medium,10.0,NO,285.66999999999996
5.0,98.0,112.0,filler,,medium,9.0,NO,290.18
5.0,7.0,113.0,filler,,long,13.0,NO,208.43
5.0,106.0,114.0,filler,,long,14.0,NO,171.85
5.0,16.0,115.0,filler,,long,14.0,NO,168.9
5.0,47.0,116.0,filler,,long,13.0,NO,167.98000000000002
5.0,39.0,117.0,filler,,long,15.0,NO,233.51
5.0,36.0,118.0,filler,,long,13.0,NO,271.84000000000003
5.0,58.0,119.0,filler,,short,4.0,NO,141.14
5.0,37.0,120.0,filler,,short,4.0,NO,222.54
5.0,22.0,121.0,filler,,short,2.0,NO,266.21000000000004
5.0,5.0,122.0,filler,,short,5.0,NO,308.83
5.0,94.0,123.0,filler,,short,4.0,NO,293.02
5.0,76.0,124.0,filler,,short,3.0,YES,199.23
5.0,40.0,125.0,filler,,medium,8.0,NO,309.47
5.0,23.0,126.0,filler,,medium,7.0,NO,155.29000000000002
5.0,32.0,127.0,filler,,medium,7.0,NO,211.31
5.0,97.0,128.0,filler,,medium,9.0,NO,288.88
5.0,38.0,129.0,filler,,medium,9.0,NO,575.96
5.0,95.0,130.0,filler,,medium,9.0,NO,370.49
5.0,75.0,131.0,filler,,long,15.0,NO,285.95
5.0,43.0,132.0,filler,,long,14.0,NO,162.56
5.0,25.0,133.0,filler,,long,14.0,NO,209.44
5.0,70.0,134.0,filler,,long,14.0,NO,351.58
5.0,87.0,135.0,filler,,long,15.0,NO,342.9
5.0,42.0,136.0,filler,,long,14.0,NO,277.03999999999996
5.0,74.0,137.0,filler,,short,3.0,NO,92.97
5.0,79.0,138.0,filler,,short,2.0,NO,141.45999999999998
5.0,41.0,139.0,filler,,short,4.0,NO,147.16
5.0,81.0,140.0,filler,,short,3.0,NO,133.28
5.0,93.0,141.0,filler,,short,3.0,NO,328.88
5.0,21.0,142.0,filler,,short,2.0,NO,467.0
5.0,15.0,143.0,filler,,medium,9.0,NO,116.05
5.0,73.0,144.0,filler,,medium,8.0,NO,306.62
5.0,33.0,145.0,filler,,medium,7.0,NO,285.14
5.0,31.0,146.0,filler,,medium,7.0,NO,204.77
5.0,71.0,147.0,filler,,medium,7.0,NO,414.21
5.0,34.0,148.0,filler,,medium,9.0,NO,278.61
5.0,1.0,149.0,filler,,long,15.0,NO,139.87
5.0,57.0,150.0,filler,,long,13.0,NO,106.4
5.0,55.0,151.0,filler,,long,13.0,YES,844.71
5.0,59.0,152.0,filler,,long,16.0,NO,314.87
5.0,72.0,153.0,filler,,long,12.0,NO,290.64
5.0,65.0,154.0,filler,,long,16.0,NO,527.1700000000001
6.0,68.0,1.0,experimental,high,short,2.0,YES,113.95
6.0,22.0,2.0,experimental,high,short,4.0,YES,179.49
6.0,96.0,3.0,experimental,high,short,5.0,YES,176.68
6.0,36.0,4.0,experimental,high,short,3.0,YES,96.92
6.0,92.0,5.0,experimental,high,short,3.0,YES,207.11
6.0,41.0,6.0,experimental,high,short,4.0,YES,229.57
6.0,64.0,7.0,experimental,high,medium,8.0,YES,177.54
6.0,53.0,8.0,experimental,high,medium,8.0,YES,163.63
6.0,78.0,9.0,experimental,high,medium,10.0,YES,236.38
6.0,89.0,10.0,experimental,high,medium,8.0,YES,190.49
6.0,32.0,11.0,experimental,high,medium,9.0,YES,233.97
6.0,24.0,12.0,experimental,high,medium,9.0,YES,204.88
6.0,48.0,13.0,experimental,high,long,13.0,YES,161.1
6.0,55.0,14.0,experimental,high,long,15.0,YES,178.08
6.0,23.0,15.0,experimental,high,long,16.0,YES,166.69
6.0,21.0,16.0,experimental,high,long,14.0,YES,184.76
6.0,61.0,17.0,experimental,high,long,16.0,YES,258.56
6.0,54.0,18.0,experimental,high,long,14.0,YES,252.76
6.0,58.0,19.0,experimental,medium,short,3.0,YES,258.62
6.0,71.0,20.0,experimental,medium,short,4.0,YES,170.9
6.0,94.0,21.0,experimental,medium,short,3.0,YES,136.97
6.0,60.0,22.0,experimental,medium,short,3.0,YES,180.2
6.0,73.0,23.0,experimental,medium,short,5.0,YES,139.6
6.0,86.0,24.0,experimental,medium,short,4.0,YES,188.36
6.0,74.0,25.0,experimental,medium,medium,7.0,YES,249.28
6.0,97.0,26.0,experimental,medium,medium,7.0,YES,131.12
6.0,47.0,27.0,experimental,medium,medium,8.0,YES,147.64
6.0,17.0,28.0,experimental,medium,medium,8.0,YES,174.16
6.0,46.0,29.0,experimental,medium,medium,8.0,YES,295.13
6.0,101.0,30.0,experimental,medium,medium,9.0,YES,324.7
6.0,63.0,31.0,experimental,medium,long,15.0,YES,156.45999999999998
6.0,50.0,32.0,experimental,medium,long,15.0,YES,213.74
6.0,42.0,33.0,experimental,medium,long,14.0,YES,196.23
6.0,31.0,34.0,experimental,medium,long,14.0,YES,216.43
6.0,69.0,35.0,experimental,medium,long,15.0,YES,290.53
6.0,40.0,36.0,experimental,medium,long,13.0,YES,374.26
6.0,6.0,37.0,experimental,low,short,4.0,YES,183.58
6.0,7.0,38.0,experimental,low,short,2.0,YES,548.64
6.0,8.0,39.0,experimental,low,short,3.0,YES,168.65
6.0,13.0,40.0,experimental,low,short,2.0,YES,190.77
6.0,65.0,41.0,experimental,low,short,4.0,YES,237.59
6.0,39.0,42.0,experimental,low,short,2.0,YES,348.24
6.0,62.0,43.0,experimental,low,medium,8.0,YES,186.06
6.0,2.0,44.0,experimental,low,medium,6.0,YES,241.57
6.0,102.0,45.0,experimental,low,medium,7.0,YES,159.13
6.0,75.0,46.0,experimental,low,medium,7.0,YES,208.71
6.0,27.0,47.0,experimental,low,medium,10.0,YES,304.84
6.0,70.0,48.0,experimental,low,medium,9.0,YES,266.23
6.0,15.0,49.0,experimental,low,long,12.0,YES,304.3
6.0,30.0,50.0,experimental,low,long,14.0,YES,237.61
6.0,1.0,51.0,experimental,low,long,15.0,YES,388.67
6.0,85.0,52.0,experimental,low,long,14.0,YES,242.62
6.0,99.0,53.0,experimental,low,long,13.0,YES,177.64
6.0,57.0,54.0,experimental,low,long,11.0,YES,394.75
6.0,88.0,101.0,filler,,short,4.0,NO,168.34
6.0,66.0,102.0,filler,,short,5.0,NO,150.03
6.0,91.0,103.0,filler,,short,4.0,NO,115.67
6.0,82.0,104.0,filler,,short,4.0,YES,133.55
6.0,49.0,105.0,filler,,short,5.0,NO,237.07
6.0,28.0,106.0,filler,,short,4.0,NO,199.88
6.0,44.0,107.0,filler,,medium,7.0,NO,163.98000000000002
6.0,56.0,108.0,filler,,medium,8.0,NO,160.53
6.0,14.0,109.0,filler,,medium,10.0,NO,171.32
6.0,26.0,110.0,filler,,medium,7.0,NO,247.12
6.0,34.0,111.0,filler,,medium,6.0,NO,209.26
6.0,95.0,112.0,filler,,medium,9.0,NO,257.98
6.0,84.0,113.0,filler,,long,14.0,NO,187.96
6.0,108.0,114.0,filler,,long,14.0,NO,188.09
6.0,104.0,115.0,filler,,long,15.0,NO,171.66
6.0,98.0,116.0,filler,,long,12.0,NO,201.72
6.0,77.0,117.0,filler,,long,15.0,NO,236.62
6.0,25.0,118.0,filler,,long,14.0,NO,271.11
6.0,16.0,119.0,filler,,short,4.0,NO,126.29
6.0,43.0,120.0,filler,,short,4.0,NO,145.57999999999998
6.0,79.0,121.0,filler,,short,3.0,NO,255.03
6.0,80.0,122.0,filler,,short,4.0,NO,174.39
6.0,105.0,123.0,filler,,short,3.0,NO,201.12
6.0,52.0,124.0,filler,,short,3.0,NO,269.9
6.0,9.0,125.0,filler,,medium,9.0,NO,161.32999999999998
6.0,76.0,126.0,filler,,medium,9.0,NO,298.85
6.0,12.0,127.0,filler,,medium,9.0,NO,220.94
6.0,103.0,128.0,filler,,medium,9.0,NO,249.34
6.0,18.0,129.0,filler,,medium,6.0,NO,285.89
6.0,5.0,130.0,filler,,medium,9.0,NO,334.7
6.0,59.0,131.0,filler,,long,15.0,NO,274.06
6.0,93.0,132.0,filler,,long,15.0,NO,216.65
6.0,19.0,133.0,filler,,long,12.0,NO,311.68
6.0,3.0,134.0,filler,,long,14.0,NO,352.94
6.0,29.0,135.0,filler,,long,16.0,NO,391.37
6.0,10.0,136.0,filler,,long,12.0,NO,301.6
6.0,106.0,137.0,filler,,short,3.0,NO,445.75
6.0,33.0,138.0,filler,,short,4.0,NO,389.84
6.0,90.0,139.0,filler,,short,4.0,NO,125.45
6.0,67.0,140.0,filler,,short,2.0,NO,275.23
6.0,81.0,141.0,filler,,short,3.0,NO,261.16999999999996
6.0,11.0,142.0,filler,,short,5.0,NO,610.87
6.0,37.0,143.0,filler,,medium,8.0,NO,272.78
6.0,45.0,144.0,filler,,medium,7.0,NO,203.62
6.0,35.0,145.0,filler,,medium,8.0,NO,251.14
6.0,87.0,146.0,filler,,medium,8.0,NO,114.22
6.0,38.0,147.0,filler,,medium,9.0,NO,200.73
6.0,107.0,148.0,filler,,medium,6.0,NO,375.83
6.0,51.0,149.0,filler,,long,16.0,NO,420.99
6.0,83.0,150.0,filler,,long,14.0,NO,118.86
6.0,20.0,151.0,filler,,long,16.0,NO,268.98
6.0,100.0,152.0,filler,,long,13.0,NO,260.0
6.0,4.0,153.0,filler,,long,15.0,NO,219.4
6.0,72.0,154.0,filler,,long,14.0,NO,364.58
7.0,45.0,1.0,experimental,high,short,4.0,YES,147.43
7.0,100.0,2.0,experimental,high,short,3.0,YES,123.54
7.0,80.0,3.0,experimental,high,short,5.0,YES,160.87
7.0,104.0,4.0,experimental,high,short,4.0,YES,140.93
7.0,95.0,5.0,experimental,high,short,4.0,YES,158.82
7.0,65.0,6.0,experimental,high,short,5.0,YES,236.32
7.0,46.0,7.0,experimental,high,medium,9.0,YES,195.93
7.0,39.0,8.0,experimental,high,medium,7.0,YES,170.92
7.0,2.0,9.0,experimental,high,medium,7.0,YES,173.22
7.0,75.0,10.0,experimental,high,medium,10.0,YES,205.96
7.0,48.0,11.0,experimental,high,medium,9.0,YES,170.92
7.0,107.0,12.0,experimental,high,medium,6.0,YES,258.16999999999996
7.0,92.0,13.0,experimental,high,long,13.0,YES,163.86
7.0,26.0,14.0,experimental,high,long,14.0,YES,252.87
7.0,67.0,15.0,experimental,high,long,12.0,YES,187.81
7.0,85.0,16.0,experimental,high,long,14.0,YES,186.24
7.0,69.0,17.0,experimental,high,long,11.0,YES,293.71000000000004
7.0,50.0,18.0,experimental,high,long,16.0,YES,314.65
7.0,103.0,19.0,experimental,medium,short,5.0,YES,241.72
7.0,83.0,20.0,experimental,medium,short,2.0,YES,202.66
7.0,60.0,21.0,experimental,medium,short,4.0,YES,232.35
7.0,57.0,22.0,experimental,medium,short,3.0,YES,184.1
7.0,82.0,23.0,experimental,medium,short,5.0,YES,229.07
7.0,91.0,24.0,experimental,medium,short,3.0,YES,245.49
7.0,87.0,25.0,experimental,medium,medium,7.0,YES,312.61
7.0,16.0,26.0,experimental,medium,medium,10.0,YES,172.68
7.0,25.0,27.0,experimental,medium,medium,10.0,YES,170.0
7.0,56.0,28.0,experimental,medium,medium,9.0,YES,253.84
7.0,73.0,29.0,experimental,medium,medium,8.0,YES,274.37
7.0,3.0,30.0,experimental,medium,medium,9.0,YES,228.88
7.0,41.0,31.0,experimental,medium,long,15.0,YES,308.33
7.0,34.0,32.0,experimental,medium,long,13.0,YES,168.58
7.0,88.0,33.0,experimental,medium,long,12.0,YES,246.67
7.0,61.0,34.0,experimental,medium,long,15.0,YES,287.88
7.0,40.0,35.0,experimental,medium,long,15.0,YES,337.43
7.0,38.0,36.0,experimental,medium,long,16.0,YES,445.99
7.0,35.0,37.0,experimental,low,short,2.0,YES,160.65
7.0,43.0,38.0,experimental,low,short,3.0,YES,494.52
7.0,106.0,39.0,experimental,low,short,2.0,YES,278.14
7.0,62.0,40.0,experimental,low,short,4.0,YES,361.93
7.0,7.0,41.0,experimental,low,short,4.0,YES,333.23
7.0,10.0,42.0,experimental,low,short,5.0,YES,302.14
7.0,70.0,43.0,experimental,low,medium,7.0,YES,212.75
7.0,94.0,44.0,experimental,low,medium,7.0,YES,334.03
7.0,66.0,45.0,experimental,low,medium,7.0,YES,280.52
7.0,74.0,46.0,experimental,low,medium,6.0,YES,191.5
7.0,55.0,47.0,experimental,low,medium,9.0,YES,177.86
7.0,105.0,48.0,experimental,low,medium,8.0,YES,408.02
7.0,78.0,49.0,experimental,low,long,16.0,YES,155.03
7.0,19.0,50.0,experimental,low,long,11.0,YES,291.62
7.0,33.0,51.0,experimental,low,long,15.0,YES,150.25
7.0,59.0,52.0,experimental,low,long,13.0,YES,163.34
7.0,108.0,53.0,experimental,low,long,14.0,YES,275.36
7.0,90.0,54.0,experimental,low,long,15.0,YES,378.95
7.0,15.0,101.0,filler,,short,2.0,NO,98.47999999999999
7.0,8.0,102.0,filler,,short,4.0,NO,207.18
7.0,17.0,103.0,filler,,short,3.0,NO,183.35
7.0,24.0,104.0,filler,,short,3.0,NO,149.43
7.0,13.0,105.0,filler,,short,5.0,NO,242.8
7.0,23.0,106.0,filler,,short,2.0,NO,252.26
7.0,89.0,107.0,filler,,medium,9.0,NO,246.84
7.0,20.0,108.0,filler,,medium,10.0,NO,201.74
7.0,12.0,109.0,filler,,medium,8.0,NO,163.44
7.0,11.0,110.0,filler,,medium,6.0,NO,177.52
7.0,36.0,111.0,filler,,medium,9.0,NO,190.2
7.0,47.0,112.0,filler,,medium,9.0,NO,294.77
7.0,63.0,113.0,filler,,long,16.0,NO,249.91
7.0,21.0,114.0,filler,,long,14.0,NO,193.92
7.0,96.0,115.0,filler,,long,14.0,NO,263.11
7.0,30.0,116.0,filler,,long,16.0,NO,178.98
7.0,76.0,117.0,filler,,long,13.0,NO,221.55
7.0,72.0,118.0,filler,,long,13.0,NO,254.44
7.0,22.0,119.0,filler,,short,5.0,NO,281.62
7.0,49.0,120.0,filler,,short,5.0,NO,244.69
7.0,31.0,121.0,filler,,short,3.0,NO,308.06
7.0,4.0,122.0,filler,,short,3.0,NO,193.02
7.0,6.0,123.0,filler,,short,3.0,NO,280.78
7.0,93.0,124.0,filler,,short,2.0,NO,689.0899999999999
7.0,5.0,125.0,filler,,medium,9.0,NO,308.22
7.0,51.0,126.0,filler,,medium,7.0,NO,263.41999999999996
7.0,37.0,127.0,filler,,medium,7.0,NO,573.72
7.0,79.0,128.0,filler,,medium,10.0,NO,258.03999999999996
7.0,18.0,129.0,filler,,medium,9.0,NO,250.05
7.0,32.0,130.0,filler,,medium,10.0,NO,415.65
7.0,29.0,131.0,filler,,long,12.0,NO,154.72
7.0,28.0,132.0,filler,,long,14.0,NO,192.81
7.0,44.0,133.0,filler,,long,11.0,NO,196.21
7.0,101.0,134.0,filler,,long,12.0,NO,699.31
7.0,1.0,135.0,filler,,long,13.0,NO,241.76
7.0,9.0,136.0,filler,,long,13.0,NO,299.08
7.0,64.0,137.0,filler,,short,5.0,NO,222.75
7.0,102.0,138.0,filler,,short,3.0,NO,238.02
7.0,14.0,139.0,filler,,short,3.0,NO,253.71
7.0,97.0,140.0,filler,,short,2.0,NO,140.45999999999998
7.0,58.0,141.0,filler,,short,5.0,NO,143.69
7.0,99.0,142.0,filler,,short,3.0,NO,291.36
7.0,71.0,143.0,filler,,medium,7.0,NO,127.81
7.0,86.0,144.0,filler,,medium,9.0,NO,504.74
7.0,77.0,145.0,filler,,medium,9.0,NO,298.95
7.0,54.0,146.0,filler,,medium,8.0,NO,115.31
7.0,42.0,147.0,filler,,medium,7.0,NO,135.11
7.0,53.0,148.0,filler,,medium,7.0,NO,262.22
7.0,84.0,149.0,filler,,long,11.0,NO,357.38
7.0,27.0,150.0,filler,,long,13.0,NO,114.03
7.0,98.0,151.0,filler,,long,14.0,NO,389.01
7.0,81.0,152.0,filler,,long,16.0,NO,251.35
7.0,52.0,153.0,filler,,long,12.0,NO,302.56
7.0,68.0,154.0,filler,,long,12.0,NO,748.36
8.0,92.0,1.0,experimental,high,short,2.0,YES,133.95
8.0,70.0,2.0,experimental,high,short,2.0,YES,153.97
8.0,53.0,3.0,experimental,high,short,3.0,YES,95.36
8.0,3.0,4.0,experimental,high,short,4.0,YES,175.2
8.0,75.0,5.0,experimental,high,short,2.0,YES,149.13
8.0,81.0,6.0,experimental,high,short,2.0,YES,183.56
8.0,27.0,7.0,experimental,high,medium,9.0,YES,133.66
8.0,34.0,8.0,experimental,high,medium,7.0,YES,139.57999999999998
8.0,59.0,9.0,experimental,high,medium,8.0,YES,156.38
8.0,88.0,10.0,experimental,high,medium,8.0,YES,170.98
8.0,29.0,11.0,experimental,high,medium,6.0,YES,257.35
8.0,96.0,12.0,experimental,high,medium,9.0,YES,218.83
8.0,71.0,13.0,experimental,high,long,12.0,YES,202.33
8.0,90.0,14.0,experimental,high,long,14.0,YES,214.05
8.0,108.0,15.0,experimental,high,long,14.0,YES,189.9
8.0,16.0,16.0,experimental,high,long,14.0,YES,246.13
8.0,57.0,17.0,experimental,high,long,13.0,YES,290.58000000000004
8.0,76.0,18.0,experimental,high,long,15.0,YES,302.03
8.0,68.0,19.0,experimental,medium,short,4.0,YES,211.26
8.0,15.0,20.0,experimental,medium,short,3.0,YES,86.71000000000001
8.0,58.0,21.0,experimental,medium,short,4.0,YES,187.24
8.0,55.0,22.0,experimental,medium,short,2.0,YES,159.0
8.0,26.0,23.0,experimental,medium,short,2.0,YES,174.28
8.0,4.0,24.0,experimental,medium,short,5.0,YES,158.26999999999998
8.0,74.0,25.0,experimental,medium,medium,6.0,YES,123.42
8.0,106.0,26.0,experimental,medium,medium,6.0,YES,144.56
8.0,30.0,27.0,experimental,medium,medium,8.0,YES,154.13
8.0,39.0,28.0,experimental,medium,medium,8.0,YES,301.01
8.0,82.0,29.0,experimental,medium,medium,8.0,YES,254.01
8.0,22.0,30.0,experimental,medium,medium,9.0,YES,565.46
8.0,85.0,31.0,experimental,medium,long,13.0,YES,216.97
8.0,107.0,32.0,experimental,medium,long,15.0,YES,291.87
8.0,99.0,33.0,experimental,medium,long,15.0,YES,302.52
8.0,103.0,34.0,experimental,medium,long,13.0,YES,222.61
8.0,1.0,35.0,experimental,medium,long,11.0,YES,356.44
8.0,31.0,36.0,experimental,medium,long,12.0,YES,390.28
8.0,40.0,37.0,experimental,low,short,3.0,YES,254.31
8.0,52.0,38.0,experimental,low,short,3.0,YES,329.09
8.0,8.0,39.0,experimental,low,short,3.0,YES,191.25
8.0,25.0,40.0,experimental,low,short,3.0,YES,196.04
8.0,77.0,41.0,experimental,low,short,5.0,YES,223.09
8.0,93.0,42.0,experimental,low,short,3.0,YES,283.78
8.0,38.0,43.0,experimental,low,medium,7.0,YES,277.21000000000004
8.0,69.0,44.0,experimental,low,medium,7.0,YES,430.19
8.0,5.0,45.0,experimental,low,medium,8.0,NO,913.23
8.0,43.0,46.0,experimental,low,medium,7.0,YES,255.89
8.0,51.0,47.0,experimental,low,medium,9.0,YES,304.35
8.0,17.0,48.0,experimental,low,medium,8.0,YES,306.06
8.0,86.0,49.0,experimental,low,long,13.0,YES,303.42
8.0,28.0,50.0,experimental,low,long,14.0,YES,136.2
8.0,47.0,51.0,experimental,low,long,15.0,YES,297.04
8.0,60.0,52.0,experimental,low,long,12.0,YES,530.48
8.0,91.0,53.0,experimental,low,long,12.0,YES,293.2
8.0,44.0,54.0,experimental,low,long,12.0,YES,267.52
8.0,13.0,101.0,filler,,short,4.0,NO,155.34
8.0,89.0,102.0,filler,,short,2.0,NO,198.33
8.0,104.0,103.0,filler,,short,4.0,NO,213.56
8.0,46.0,104.0,filler,,short,4.0,NO,188.42
8.0,102.0,105.0,filler,,short,4.0,NO,148.23000000000002
8.0,56.0,106.0,filler,,short,4.0,NO,232.89
8.0,62.0,107.0,filler,,medium,7.0,NO,185.24
8.0,101.0,108.0,filler,,medium,7.0,NO,227.34
8.0,48.0,109.0,filler,,medium,6.0,NO,210.23
8.0,37.0,110.0,filler,,medium,8.0,NO,205.8
8.0,83.0,111.0,filler,,medium,9.0,NO,237.53
8.0,105.0,112.0,filler,,medium,7.0,NO,309.27
8.0,66.0,113.0,filler,,long,12.0,NO,159.89
8.0,100.0,114.0,filler,,long,15.0,NO,167.67000000000002
8.0,12.0,115.0,filler,,long,13.0,NO,243.54
8.0,20.0,116.0,filler,,long,12.0,NO,224.53
8.0,78.0,117.0,filler,,long,13.0,NO,250.37
8.0,6.0,118.0,filler,,long,12.0,NO,259.71000000000004
8.0,11.0,119.0,filler,,short,4.0,NO,188.52
8.0,41.0,120.0,filler,,short,3.0,NO,272.40999999999997
8.0,54.0,121.0,filler,,short,3.0,NO,264.44
8.0,24.0,122.0,filler,,short,3.0,NO,273.22
8.0,97.0,123.0,filler,,short,2.0,NO,314.69
8.0,2.0,124.0,filler,,short,3.0,NO,361.6
8.0,67.0,125.0,filler,,medium,10.0,NO,172.42
8.0,87.0,126.0,filler,,medium,8.0,NO,296.47
8.0,14.0,127.0,filler,,medium,10.0,NO,260.65
8.0,42.0,128.0,filler,,medium,10.0,NO,170.99
8.0,65.0,129.0,filler,,medium,10.0,NO,384.69
8.0,94.0,130.0,filler,,medium,7.0,NO,230.13
8.0,21.0,131.0,filler,,long,14.0,NO,291.14
8.0,35.0,132.0,filler,,long,16.0,NO,166.12
8.0,10.0,133.0,filler,,long,14.0,NO,297.68
8.0,98.0,134.0,filler,,long,14.0,NO,304.51
8.0,49.0,135.0,filler,,long,14.0,NO,322.95
8.0,33.0,136.0,filler,,long,16.0,NO,396.92
8.0,72.0,137.0,filler,,short,3.0,NO,129.14
8.0,84.0,138.0,filler,,short,5.0,YES,535.0
8.0,61.0,139.0,filler,,short,4.0,NO,155.43
8.0,7.0,140.0,filler,,short,2.0,NO,307.47
8.0,63.0,141.0,filler,,short,3.0,NO,182.74
8.0,64.0,142.0,filler,,short,3.0,NO,194.71
8.0,23.0,143.0,filler,,medium,7.0,NO,150.72
8.0,9.0,144.0,filler,,medium,6.0,NO,189.54
8.0,95.0,145.0,filler,,medium,10.0,NO,269.62
8.0,36.0,146.0,filler,,medium,8.0,NO,284.2
8.0,79.0,147.0,filler,,medium,9.0,NO,358.53
8.0,80.0,148.0,filler,,medium,9.0,NO,449.26
8.0,73.0,149.0,filler,,long,14.0,NO,147.94
8.0,19.0,150.0,filler,,long,12.0,NO,322.89
8.0,50.0,151.0,filler,,long,13.0,NO,378.39
8.0,32.0,152.0,filler,,long,15.0,NO,267.72
8.0,18.0,153.0,filler,,long,16.0,NO,201.3
8.0,45.0,154.0,filler,,long,12.0,NO,406.66
9.0,4.0,1.0,experimental,high,short,4.0,YES,157.91
9.0,50.0,2.0,experimental,high,short,5.0,YES,116.57
9.0,98.0,3.0,experimental,high,short,4.0,YES,129.29000000000002
9.0,58.0,4.0,experimental,high,short,3.0,YES,109.28
9.0,67.0,5.0,experimental,high,short,4.0,YES,145.07
9.0,12.0,6.0,experimental,high,short,3.0,YES,218.43
9.0,92.0,7.0,experimental,high,medium,6.0,YES,209.0
9.0,16.0,8.0,experimental,high,medium,10.0,YES,175.25
9.0,34.0,9.0,experimental,high,medium,9.0,YES,150.25
9.0,104.0,10.0,experimental,high,medium,8.0,YES,141.89
9.0,31.0,11.0,experimental,high,medium,9.0,YES,152.2
9.0,39.0,12.0,experimental,high,medium,8.0,YES,271.66999999999996
9.0,10.0,13.0,experimental,high,long,14.0,YES,168.74
9.0,95.0,14.0,experimental,high,long,15.0,YES,246.12
9.0,28.0,15.0,experimental,high,long,11.0,YES,220.25
9.0,83.0,16.0,experimental,high,long,12.0,YES,242.29
9.0,85.0,17.0,experimental,high,long,14.0,YES,183.86
9.0,105.0,18.0,experimental,high,long,16.0,YES,277.11
9.0,29.0,19.0,experimental,medium,short,3.0,YES,229.14
9.0,53.0,20.0,experimental,medium,short,4.0,YES,128.42000000000002
9.0,46.0,21.0,experimental,medium,short,2.0,YES,143.86
9.0,79.0,22.0,experimental,medium,short,5.0,YES,232.93
9.0,35.0,23.0,experimental,medium,short,4.0,YES,144.4
9.0,51.0,24.0,experimental,medium,short,5.0,YES,274.61
9.0,71.0,25.0,experimental,medium,medium,9.0,YES,293.85
9.0,21.0,26.0,experimental,medium,medium,8.0,YES,237.24
9.0,82.0,27.0,experimental,medium,medium,9.0,YES,301.46
9.0,57.0,28.0,experimental,medium,medium,8.0,YES,133.35
9.0,18.0,29.0,experimental,medium,medium,10.0,YES,264.28
9.0,52.0,30.0,experimental,medium,medium,8.0,YES,291.3
9.0,77.0,31.0,experimental,medium,long,15.0,YES,164.05
9.0,59.0,32.0,experimental,medium,long,13.0,YES,238.09
9.0,9.0,33.0,experimental,medium,long,13.0,YES,579.29
9.0,70.0,34.0,experimental,medium,long,15.0,YES,241.13
9.0,7.0,35.0,experimental,medium,long,15.0,YES,214.07
9.0,8.0,36.0,experimental,medium,long,16.0,YES,407.4
9.0,27.0,37.0,experimental,low,short,3.0,YES,113.29
9.0,100.0,38.0,experimental,low,short,4.0,YES,98.44
9.0,65.0,39.0,experimental,low,short,2.0,YES,358.22
9.0,87.0,40.0,experimental,low,short,5.0,YES,865.3399999999999
9.0,74.0,41.0,experimental,low,short,3.0,YES,263.36
9.0,40.0,42.0,experimental,low,short,4.0,YES,678.9
9.0,43.0,43.0,experimental,low,medium,9.0,YES,199.18
9.0,19.0,44.0,experimental,low,medium,6.0,YES,283.15
9.0,36.0,45.0,experimental,low,medium,8.0,YES,791.3399999999999
9.0,6.0,46.0,experimental,low,medium,7.0,YES,230.97
9.0,41.0,47.0,experimental,low,medium,8.0,YES,295.2
9.0,45.0,48.0,experimental,low,medium,8.0,YES,253.94
9.0,72.0,49.0,experimental,low,long,13.0,YES,190.2
9.0,49.0,50.0,experimental,low,long,13.0,YES,250.89
9.0,99.0,51.0,experimental,low,long,15.0,YES,351.94
9.0,37.0,52.0,experimental,low,long,11.0,YES,107.74
9.0,73.0,53.0,experimental,low,long,13.0,YES,387.56
9.0,25.0,54.0,experimental,low,long,14.0,YES,308.7
9.0,13.0,101.0,filler,,short,3.0,NO,135.39
9.0,56.0,102.0,filler,,short,4.0,NO,129.92000000000002
9.0,11.0,103.0,filler,,short,3.0,NO,118.09
9.0,60.0,104.0,filler,,short,4.0,NO,128.82999999999998
9.0,32.0,105.0,filler,,short,2.0,NO,182.07
9.0,30.0,106.0,filler,,short,3.0,NO,194.94
9.0,107.0,107.0,filler,,medium,9.0,NO,158.95999999999998
9.0,84.0,108.0,filler,,medium,7.0,NO,160.05
9.0,88.0,109.0,filler,,medium,6.0,NO,203.25
9.0,93.0,110.0,filler,,medium,10.0,NO,262.2
9.0,55.0,111.0,filler,,medium,8.0,NO,244.65
9.0,94.0,112.0,filler,,medium,9.0,NO,277.7
9.0,14.0,113.0,filler,,long,12.0,NO,210.62
9.0,15.0,114.0,filler,,long,12.0,NO,168.03
9.0,66.0,115.0,filler,,long,12.0,NO,187.78
9.0,22.0,116.0,filler,,long,15.0,NO,194.29
9.0,54.0,117.0,filler,,long,15.0,NO,244.13
9.0,97.0,118.0,filler,,long,13.0,NO,217.87
9.0,102.0,119.0,filler,,short,3.0,NO,291.16999999999996
9.0,17.0,120.0,filler,,short,4.0,NO,130.01
9.0,80.0,121.0,filler,,short,4.0,NO,225.21
9.0,106.0,122.0,filler,,short,2.0,NO,212.08
9.0,76.0,123.0,filler,,short,3.0,NO,321.65
9.0,33.0,124.0,filler,,short,4.0,NO,357.18
9.0,42.0,125.0,filler,,medium,8.0,NO,258.4
9.0,62.0,126.0,filler,,medium,6.0,NO,196.24
9.0,78.0,127.0,filler,,medium,8.0,NO,279.59000000000003
9.0,81.0,128.0,filler,,medium,8.0,NO,435.36
9.0,2.0,129.0,filler,,medium,7.0,NO,293.58000000000004
9.0,101.0,130.0,filler,,medium,8.0,NO,384.52
9.0,91.0,131.0,filler,,long,15.0,NO,290.97
9.0,61.0,132.0,filler,,long,12.0,NO,216.51
9.0,68.0,133.0,filler,,long,12.0,NO,158.39
9.0,89.0,134.0,filler,,long,15.0,NO,647.14
9.0,20.0,135.0,filler,,long,14.0,NO,246.23
9.0,96.0,136.0,filler,,long,12.0,NO,240.92
9.0,26.0,137.0,filler,,short,2.0,NO,220.96
9.0,47.0,138.0,filler,,short,4.0,NO,169.23
9.0,24.0,139.0,filler,,short,2.0,NO,332.23
9.0,44.0,140.0,filler,,short,2.0,NO,181.87
9.0,108.0,141.0,filler,,short,4.0,NO,253.5
9.0,90.0,142.0,filler,,short,5.0,NO,435.73
9.0,1.0,143.0,filler,,medium,7.0,NO,371.7
9.0,64.0,144.0,filler,,medium,9.0,NO,301.71
9.0,75.0,145.0,filler,,medium,7.0,NO,106.52
9.0,3.0,146.0,filler,,medium,7.0,NO,157.74
9.0,103.0,147.0,filler,,medium,6.0,NO,220.99
9.0,63.0,148.0,filler,,medium,7.0,NO,255.52
9.0,5.0,149.0,filler,,long,15.0,YES,299.14
9.0,48.0,150.0,filler,,long,12.0,NO,212.49
9.0,23.0,151.0,filler,,long,13.0,NO,200.32
9.0,86.0,152.0,filler,,long,11.0,NO,282.39
9.0,38.0,153.0,filler,,long,14.0,NO,415.37
9.0,69.0,154.0,filler,,long,15.0,NO,255.66
10.0,73.0,1.0,experimental,high,short,4.0,YES,124.79
10.0,33.0,2.0,experimental,high,short,4.0,YES,152.45
10.0,60.0,3.0,experimental,high,short,4.0,YES,119.49
10.0,35.0,4.0,experimental,high,short,5.0,YES,122.82
10.0,47.0,5.0,experimental,high,short,2.0,YES,147.85
10.0,44.0,6.0,experimental,high,short,3.0,YES,227.83
10.0,19.0,7.0,experimental,high,medium,9.0,YES,152.7
10.0,93.0,8.0,experimental,high,medium,10.0,YES,195.82
10.0,80.0,9.0,experimental,high,medium,8.0,YES,167.8
10.0,10.0,10.0,experimental,high,medium,10.0,YES,187.46
10.0,50.0,11.0,experimental,high,medium,6.0,YES,158.23000000000002
10.0,52.0,12.0,experimental,high,medium,7.0,YES,194.34
10.0,39.0,13.0,experimental,high,long,15.0,YES,218.0
10.0,41.0,14.0,experimental,high,long,14.0,YES,233.68
10.0,105.0,15.0,experimental,high,long,12.0,YES,171.63
10.0,59.0,16.0,experimental,high,long,14.0,YES,216.48
10.0,108.0,17.0,experimental,high,long,11.0,YES,205.78
10.0,29.0,18.0,experimental,high,long,12.0,YES,280.37
10.0,20.0,19.0,experimental,medium,short,2.0,YES,275.3
10.0,61.0,20.0,experimental,medium,short,3.0,NO,94.92
10.0,97.0,21.0,experimental,medium,short,3.0,YES,195.86
10.0,24.0,22.0,experimental,medium,short,4.0,YES,292.36
10.0,107.0,23.0,experimental,medium,short,3.0,YES,310.71
10.0,74.0,24.0,experimental,medium,short,2.0,YES,192.09
10.0,25.0,25.0,experimental,medium,medium,7.0,YES,209.0
10.0,79.0,26.0,experimental,medium,medium,7.0,YES,158.57999999999998
10.0,63.0,27.0,experimental,medium,medium,9.0,YES,230.27
10.0,28.0,28.0,experimental,medium,medium,8.0,YES,229.82
10.0,42.0,29.0,experimental,medium,medium,8.0,YES,306.3
10.0,65.0,30.0,experimental,medium,medium,8.0,YES,267.6
10.0,38.0,31.0,experimental,medium,long,14.0,YES,164.55
10.0,83.0,32.0,experimental,medium,long,14.0,YES,199.54
10.0,92.0,33.0,experimental,medium,long,14.0,YES,274.89
10.0,88.0,34.0,experimental,medium,long,16.0,YES,267.78999999999996
10.0,18.0,35.0,experimental,medium,long,11.0,YES,219.46
10.0,2.0,36.0,experimental,medium,long,15.0,YES,752.75
10.0,103.0,37.0,experimental,low,short,3.0,YES,167.16
10.0,67.0,38.0,experimental,low,short,4.0,YES,93.46000000000001
10.0,86.0,39.0,experimental,low,short,3.0,YES,203.77
10.0,32.0,40.0,experimental,low,short,4.0,YES,123.42
10.0,34.0,41.0,experimental,low,short,3.0,YES,296.2
10.0,100.0,42.0,experimental,low,short,3.0,YES,198.4
10.0,96.0,43.0,experimental,low,medium,9.0,YES,303.79
10.0,21.0,44.0,experimental,low,medium,8.0,YES,293.59000000000003
10.0,43.0,45.0,experimental,low,medium,9.0,YES,409.66
10.0,71.0,46.0,experimental,low,medium,9.0,YES,250.7
10.0,48.0,47.0,experimental,low,medium,10.0,YES,416.15
10.0,15.0,48.0,experimental,low,medium,8.0,YES,299.42
10.0,1.0,49.0,experimental,low,long,15.0,YES,160.66
10.0,56.0,50.0,experimental,low,long,13.0,YES,348.4
10.0,17.0,51.0,experimental,low,long,12.0,YES,252.48
10.0,104.0,52.0,experimental,low,long,15.0,YES,282.02
10.0,76.0,53.0,experimental,low,long,13.0,YES,312.69
10.0,51.0,54.0,experimental,low,long,12.0,YES,460.7
10.0,5.0,101.0,filler,,short,4.0,NO,168.35
10.0,98.0,102.0,filler,,short,4.0,NO,201.04
10.0,64.0,103.0,filler,,short,3.0,NO,138.01999999999998
10.0,58.0,104.0,filler,,short,3.0,NO,152.93
10.0,36.0,105.0,filler,,short,2.0,NO,142.28
10.0,49.0,106.0,filler,,short,5.0,NO,181.5
10.0,72.0,107.0,filler,,medium,7.0,NO,203.31
10.0,94.0,108.0,filler,,medium,10.0,NO,182.76
10.0,53.0,109.0,filler,,medium,6.0,NO,170.31
10.0,3.0,110.0,filler,,medium,10.0,NO,168.82
10.0,13.0,111.0,filler,,medium,8.0,NO,244.18
10.0,46.0,112.0,filler,,medium,8.0,NO,281.15
10.0,89.0,113.0,filler,,long,16.0,NO,194.27
10.0,22.0,114.0,filler,,long,12.0,NO,237.44
10.0,85.0,115.0,filler,,long,13.0,NO,228.61
10.0,77.0,116.0,filler,,long,16.0,NO,179.0
10.0,70.0,117.0,filler,,long,12.0,NO,231.0
10.0,95.0,118.0,filler,,long,15.0,NO,307.92
10.0,55.0,119.0,filler,,short,3.0,NO,248.8
10.0,102.0,120.0,filler,,short,4.0,NO,157.38
10.0,66.0,121.0,filler,,short,4.0,NO,208.76
10.0,87.0,122.0,filler,,short,4.0,NO,255.87
10.0,16.0,123.0,filler,,short,4.0,NO,196.01
10.0,11.0,124.0,filler,,short,5.0,NO,530.53
10.0,8.0,125.0,filler,,medium,8.0,NO,337.58
10.0,62.0,126.0,filler,,medium,9.0,NO,335.08
10.0,57.0,127.0,filler,,medium,10.0,NO,178.33
10.0,78.0,128.0,filler,,medium,9.0,NO,200.06
10.0,12.0,129.0,filler,,medium,8.0,NO,273.34000000000003
10.0,23.0,130.0,filler,,medium,8.0,NO,288.90999999999997
10.0,54.0,131.0,filler,,long,12.0,NO,318.74
10.0,14.0,132.0,filler,,long,12.0,NO,332.9
10.0,31.0,133.0,filler,,long,14.0,NO,252.34
10.0,75.0,134.0,filler,,long,16.0,NO,223.49
10.0,6.0,135.0,filler,,long,14.0,NO,244.67
10.0,81.0,136.0,filler,,long,16.0,NO,336.01
10.0,91.0,137.0,filler,,short,4.0,NO,192.44
10.0,40.0,138.0,filler,,short,5.0,NO,405.29
10.0,26.0,139.0,filler,,short,3.0,NO,172.76
10.0,27.0,140.0,filler,,short,5.0,NO,344.06
10.0,69.0,141.0,filler,,short,5.0,NO,185.22
10.0,99.0,142.0,filler,,short,4.0,NO,488.26
10.0,4.0,143.0,filler,,medium,7.0,NO,280.68
10.0,68.0,144.0,filler,,medium,7.0,NO,265.95
10.0,7.0,145.0,filler,,medium,8.0,NO,246.22
10.0,30.0,146.0,filler,,medium,7.0,NO,141.17000000000002
10.0,90.0,147.0,filler,,medium,7.0,NO,255.94
10.0,45.0,148.0,filler,,medium,6.0,NO,381.12
10.0,84.0,149.0,filler,,long,11.0,NO,348.98
10.0,37.0,150.0,filler,,long,15.0,NO,337.98
10.0,9.0,151.0,filler,,long,14.0,NO,111.61
10.0,82.0,152.0,filler,,long,13.0,NO,454.21000000000004
10.0,101.0,153.0,filler,,long,13.0,NO,260.75
10.0,106.0,154.0,filler,,long,14.0,NO,294.81
11.0,10.0,1.0,experimental,high,short,3.0,YES,122.56
11.0,18.0,2.0,experimental,high,short,4.0,YES,147.34
11.0,12.0,3.0,experimental,high,short,5.0,YES,101.86
11.0,90.0,4.0,experimental,high,short,2.0,YES,181.22
11.0,76.0,5.0,experimental,high,short,5.0,YES,185.32
11.0,21.0,6.0,experimental,high,short,3.0,YES,229.83
11.0,67.0,7.0,experimental,high,medium,8.0,YES,230.45
11.0,24.0,8.0,experimental,high,medium,9.0,YES,154.92000000000002
11.0,64.0,9.0,experimental,high,medium,8.0,YES,205.71
11.0,68.0,10.0,experimental,high,medium,7.0,YES,162.81
11.0,30.0,11.0,experimental,high,medium,8.0,YES,159.9
11.0,102.0,12.0,experimental,high,medium,9.0,YES,227.57
11.0,38.0,13.0,experimental,high,long,13.0,YES,189.21
11.0,34.0,14.0,experimental,high,long,11.0,YES,215.15
11.0,106.0,15.0,experimental,high,long,16.0,YES,187.15
11.0,58.0,16.0,experimental,high,long,13.0,YES,265.58000000000004
11.0,93.0,17.0,experimental,high,long,16.0,YES,201.04
11.0,62.0,18.0,experimental,high,long,13.0,YES,249.0
11.0,5.0,19.0,experimental,medium,short,4.0,YES,148.93
11.0,19.0,20.0,experimental,medium,short,4.0,NO,124.37
11.0,96.0,21.0,experimental,medium,short,3.0,YES,96.41
11.0,88.0,22.0,experimental,medium,short,3.0,YES,262.56
11.0,9.0,23.0,experimental,medium,short,2.0,YES,205.12
11.0,32.0,24.0,experimental,medium,short,2.0,YES,218.01
11.0,46.0,25.0,experimental,medium,medium,8.0,YES,272.77
11.0,14.0,26.0,experimental,medium,medium,9.0,YES,188.03
11.0,57.0,27.0,experimental,medium,medium,7.0,YES,194.74
11.0,36.0,28.0,experimental,medium,medium,7.0,YES,310.68
11.0,66.0,29.0,experimental,medium,medium,9.0,YES,295.98
11.0,103.0,30.0,experimental,medium,medium,8.0,YES,232.47
11.0,43.0,31.0,experimental,medium,long,15.0,YES,230.12
11.0,25.0,32.0,experimental,medium,long,14.0,YES,524.15
11.0,17.0,33.0,experimental,medium,long,14.0,YES,204.67
11.0,60.0,34.0,experimental,medium,long,15.0,YES,325.27
11.0,15.0,35.0,experimental,medium,long,11.0,YES,315.75
11.0,3.0,36.0,experimental,medium,long,15.0,YES,287.28999999999996
11.0,89.0,37.0,experimental,low,short,4.0,YES,284.38
11.0,42.0,38.0,experimental,low,short,4.0,YES,235.33
11.0,82.0,39.0,experimental,low,short,3.0,YES,201.31
11.0,51.0,40.0,experimental,low,short,2.0,YES,242.54
11.0,95.0,41.0,experimental,low,short,3.0,YES,126.0
11.0,37.0,42.0,experimental,low,short,2.0,YES,270.97
11.0,33.0,43.0,experimental,low,medium,7.0,YES,239.72
11.0,4.0,44.0,experimental,low,medium,9.0,YES,338.09
11.0,40.0,45.0,experimental,low,medium,7.0,YES,158.06
11.0,8.0,46.0,experimental,low,medium,6.0,YES,184.42
11.0,52.0,47.0,experimental,low,medium,7.0,YES,251.53
11.0,48.0,48.0,experimental,low,medium,10.0,YES,203.91
11.0,83.0,49.0,experimental,low,long,12.0,YES,142.57999999999998
11.0,49.0,50.0,experimental,low,long,15.0,YES,101.28
11.0,75.0,51.0,experimental,low,long,14.0,YES,310.41
11.0,41.0,52.0,experimental,low,long,12.0,YES,295.97
11.0,22.0,53.0,experimental,low,long,13.0,YES,191.29
11.0,73.0,54.0,experimental,low,long,14.0,YES,374.58
11.0,26.0,101.0,filler,,short,2.0,NO,113.28
11.0,55.0,102.0,filler,,short,2.0,NO,125.09
11.0,27.0,103.0,filler,,short,3.0,NO,204.93
11.0,104.0,104.0,filler,,short,4.0,NO,150.4
11.0,39.0,105.0,filler,,short,4.0,NO,169.21
11.0,78.0,106.0,filler,,short,5.0,NO,177.53
11.0,13.0,107.0,filler,,medium,7.0,NO,162.53
11.0,63.0,108.0,filler,,medium,6.0,NO,237.1
11.0,92.0,109.0,filler,,medium,6.0,NO,241.73
11.0,29.0,110.0,filler,,medium,10.0,NO,259.15999999999997
11.0,61.0,111.0,filler,,medium,10.0,NO,218.44
11.0,98.0,112.0,filler,,medium,8.0,NO,300.45
11.0,47.0,113.0,filler,,long,13.0,NO,195.98
11.0,69.0,114.0,filler,,long,16.0,NO,173.22
11.0,16.0,115.0,filler,,long,16.0,NO,171.66
11.0,87.0,116.0,filler,,long,11.0,NO,186.25
11.0,45.0,117.0,filler,,long,13.0,NO,295.05
11.0,59.0,118.0,filler,,long,13.0,NO,251.15
11.0,7.0,119.0,filler,,short,4.0,NO,257.26
11.0,72.0,120.0,filler,,short,4.0,NO,244.3
11.0,20.0,121.0,filler,,short,3.0,NO,193.66
11.0,1.0,122.0,filler,,short,5.0,NO,173.46
11.0,54.0,123.0,filler,,short,4.0,NO,197.01
11.0,86.0,124.0,filler,,short,4.0,NO,197.18
11.0,97.0,125.0,filler,,medium,8.0,NO,224.53
11.0,28.0,126.0,filler,,medium,9.0,NO,374.68
11.0,91.0,127.0,filler,,medium,8.0,NO,273.12
11.0,84.0,128.0,filler,,medium,9.0,NO,265.64
11.0,107.0,129.0,filler,,medium,10.0,NO,250.49
11.0,80.0,130.0,filler,,medium,9.0,NO,418.41
11.0,99.0,131.0,filler,,long,12.0,NO,296.86
11.0,85.0,132.0,filler,,long,13.0,NO,252.17
11.0,11.0,133.0,filler,,long,11.0,NO,302.66
11.0,108.0,134.0,filler,,long,15.0,NO,283.72
11.0,31.0,135.0,filler,,long,14.0,NO,270.78
11.0,65.0,136.0,filler,,long,12.0,NO,286.78999999999996
11.0,6.0,137.0,filler,,short,3.0,NO,346.53
11.0,74.0,138.0,filler,,short,4.0,NO,186.43
11.0,2.0,139.0,filler,,short,3.0,NO,737.9100000000001
11.0,79.0,140.0,filler,,short,3.0,NO,276.95
11.0,100.0,141.0,filler,,short,2.0,NO,198.59
11.0,94.0,142.0,filler,,short,5.0,NO,813.03
11.0,81.0,143.0,filler,,medium,9.0,NO,232.41
11.0,77.0,144.0,filler,,medium,7.0,NO,284.07
11.0,105.0,145.0,filler,,medium,9.0,NO,377.54
11.0,53.0,146.0,filler,,medium,9.0,NO,193.42
11.0,23.0,147.0,filler,,medium,9.0,NO,586.3299999999999
11.0,70.0,148.0,filler,,medium,8.0,NO,430.36
11.0,35.0,149.0,filler,,long,15.0,NO,306.83
11.0,50.0,150.0,filler,,long,13.0,NO,248.7
11.0,56.0,151.0,filler,,long,15.0,NO,589.3299999999999
11.0,101.0,152.0,filler,,long,15.0,NO,266.48
11.0,71.0,153.0,filler,,long,13.0,NO,171.22
11.0,44.0,154.0,filler,,long,11.0,NO,410.02
12.0,6.0,1.0,experimental,high,short,2.0,YES,129.03
12.0,84.0,2.0,experimental,high,short,5.0,YES,130.17000000000002
12.0,14.0,3.0,experimental,high,short,5.0,YES,123.73
12.0,67.0,4.0,experimental,high,short,2.0,YES,100.07
12.0,57.0,5.0,experimental,high,short,4.0,YES,214.39
12.0,23.0,6.0,experimental,high,short,5.0,YES,246.71
12.0,81.0,7.0,experimental,high,medium,9.0,YES,144.70999999999998
12.0,44.0,8.0,experimental,high,medium,9.0,YES,122.04
12.0,73.0,9.0,experimental,high,medium,6.0,YES,155.45999999999998
12.0,72.0,10.0,experimental,high,medium,8.0,YES,207.46
12.0,64.0,11.0,experimental,high,medium,7.0,YES,163.35
12.0,26.0,12.0,experimental,high,medium,6.0,YES,280.08000000000004
12.0,71.0,13.0,experimental,high,long,14.0,YES,164.14
12.0,28.0,14.0,experimental,high,long,11.0,YES,159.93
12.0,78.0,15.0,experimental,high,long,13.0,YES,184.83
12.0,76.0,16.0,experimental,high,long,14.0,YES,206.14
12.0,97.0,17.0,experimental,high,long,15.0,YES,253.58
12.0,9.0,18.0,experimental,high,long,14.0,YES,265.26
12.0,39.0,19.0,experimental,medium,short,3.0,YES,214.16
12.0,85.0,20.0,experimental,medium,short,5.0,YES,196.92
12.0,7.0,21.0,experimental,medium,short,2.0,YES,255.28
12.0,40.0,22.0,experimental,medium,short,4.0,YES,110.04
12.0,50.0,23.0,experimental,medium,short,3.0,YES,246.78
12.0,69.0,24.0,experimental,medium,short,4.0,YES,274.15999999999997
12.0,42.0,25.0,experimental,medium,medium,10.0,YES,166.1
12.0,33.0,26.0,experimental,medium,medium,7.0,YES,203.29
12.0,12.0,27.0,experimental,medium,medium,8.0,YES,216.76
12.0,98.0,28.0,experimental,medium,medium,7.0,YES,201.25
12.0,61.0,29.0,experimental,medium,medium,9.0,YES,314.21
12.0,94.0,30.0,experimental,medium,medium,9.0,YES,284.99
12.0,56.0,31.0,experimental,medium,long,12.0,YES,542.81
12.0,37.0,32.0,experimental,medium,long,16.0,YES,188.02
12.0,107.0,33.0,experimental,medium,long,13.0,YES,358.69
12.0,15.0,34.0,experimental,medium,long,12.0,YES,202.64
12.0,35.0,35.0,experimental,medium,long,13.0,YES,372.03
12.0,87.0,36.0,experimental,medium,long,12.0,YES,254.64
12.0,105.0,37.0,experimental,low,short,2.0,YES,130.31
12.0,79.0,38.0,experimental,low,short,5.0,YES,166.04000000000002
12.0,99.0,39.0,experimental,low,short,3.0,YES,345.1
12.0,74.0,40.0,experimental,low,short,3.0,YES,194.61
12.0,62.0,41.0,experimental,low,short,4.0,YES,300.81
12.0,75.0,42.0,experimental,low,short,5.0,YES,771.02
12.0,55.0,43.0,experimental,low,medium,9.0,YES,475.11
12.0,24.0,44.0,experimental,low,medium,10.0,YES,142.09
12.0,95.0,45.0,experimental,low,medium,7.0,YES,400.87
12.0,54.0,46.0,experimental,low,medium,8.0,YES,371.1
12.0,8.0,47.0,experimental,low,medium,9.0,YES,526.0799999999999
12.0,46.0,48.0,experimental,low,medium,7.0,YES,179.89
12.0,102.0,49.0,experimental,low,long,13.0,NO,313.08
12.0,90.0,50.0,experimental,low,long,14.0,YES,296.17
12.0,82.0,51.0,experimental,low,long,12.0,YES,318.14
12.0,1.0,52.0,experimental,low,long,13.0,YES,317.69
12.0,96.0,53.0,experimental,low,long,15.0,YES,169.85
12.0,45.0,54.0,experimental,low,long,11.0,NO,970.97
12.0,38.0,101.0,filler,,short,2.0,NO,130.87
12.0,41.0,102.0,filler,,short,2.0,NO,149.6
12.0,19.0,103.0,filler,,short,3.0,NO,210.72
12.0,100.0,104.0,filler,,short,4.0,NO,205.49
12.0,48.0,105.0,filler,,short,3.0,NO,232.6
12.0,4.0,106.0,filler,,short,4.0,NO,227.01
12.0,53.0,107.0,filler,,medium,7.0,NO,203.61
12.0,65.0,108.0,filler,,medium,7.0,NO,224.17
12.0,17.0,109.0,filler,,medium,6.0,NO,186.05
12.0,20.0,110.0,filler,,medium,7.0,NO,183.61
12.0,22.0,111.0,filler,,medium,8.0,NO,219.06
12.0,60.0,112.0,filler,,medium,9.0,NO,236.36
12.0,93.0,113.0,filler,,long,12.0,NO,236.47
12.0,86.0,114.0,filler,,long,14.0,NO,238.16
12.0,13.0,115.0,filler,,long,14.0,NO,204.43
12.0,77.0,116.0,filler,,long,15.0,NO,207.87
12.0,30.0,117.0,filler,,long,15.0,NO,230.15
12.0,104.0,118.0,filler,,long,12.0,NO,311.77
12.0,43.0,119.0,filler,,short,4.0,NO,241.91
12.0,92.0,120.0,filler,,short,2.0,NO,140.03
12.0,52.0,121.0,filler,,short,2.0,NO,305.7
12.0,2.0,122.0,filler,,short,4.0,NO,126.23
12.0,49.0,123.0,filler,,short,3.0,NO,211.41
12.0,34.0,124.0,filler,,short,3.0,NO,290.72
12.0,29.0,125.0,filler,,medium,8.0,NO,238.75
12.0,89.0,126.0,filler,,medium,6.0,NO,473.9
12.0,101.0,127.0,filler,,medium,6.0,NO,166.5
12.0,63.0,128.0,filler,,medium,9.0,NO,188.27
12.0,11.0,129.0,filler,,medium,8.0,NO,469.47
12.0,88.0,130.0,filler,,medium,8.0,NO,228.89
12.0,25.0,131.0,filler,,long,13.0,NO,503.31
12.0,80.0,132.0,filler,,long,15.0,NO,351.72
12.0,32.0,133.0,filler,,long,13.0,NO,238.91
12.0,16.0,134.0,filler,,long,16.0,NO,175.52
12.0,51.0,135.0,filler,,long,11.0,NO,245.93
12.0,3.0,136.0,filler,,long,12.0,NO,522.27
12.0,59.0,137.0,filler,,short,3.0,NO,115.01
12.0,70.0,138.0,filler,,short,2.0,NO,372.55
12.0,31.0,139.0,filler,,short,4.0,NO,129.98000000000002
12.0,5.0,140.0,filler,,short,2.0,NO,500.05
12.0,21.0,141.0,filler,,short,5.0,NO,441.95
12.0,103.0,142.0,filler,,short,5.0,NO,327.06
12.0,47.0,143.0,filler,,medium,7.0,NO,162.6
12.0,106.0,144.0,filler,,medium,8.0,NO,328.17
12.0,27.0,145.0,filler,,medium,7.0,NO,172.58
12.0,58.0,146.0,filler,,medium,9.0,NO,151.76
12.0,68.0,147.0,filler,,medium,7.0,NO,617.39
12.0,36.0,148.0,filler,,medium,9.0,NO,768.8199999999999
12.0,18.0,149.0,filler,,long,14.0,NO,278.24
12.0,83.0,150.0,filler,,long,15.0,NO,260.72
12.0,66.0,151.0,filler,,long,14.0,NO,361.99
12.0,10.0,152.0,filler,,long,16.0,NO,484.05
12.0,91.0,153.0,filler,,long,13.0,NO,432.97
12.0,108.0,154.0,filler,,long,15.0,NO,248.67
13.0,68.0,1.0,experimental,high,short,4.0,YES,145.37
13.0,16.0,2.0,experimental,high,short,3.0,YES,184.51
13.0,71.0,3.0,experimental,high,short,3.0,YES,147.43
13.0,5.0,4.0,experimental,high,short,4.0,YES,174.72
13.0,76.0,5.0,experimental,high,short,4.0,YES,179.57
13.0,15.0,6.0,experimental,high,short,4.0,YES,205.61
13.0,59.0,7.0,experimental,high,medium,6.0,YES,142.56
13.0,17.0,8.0,experimental,high,medium,9.0,YES,142.28
13.0,62.0,9.0,experimental,high,medium,7.0,YES,132.99
13.0,91.0,10.0,experimental,high,medium,6.0,YES,203.28
13.0,2.0,11.0,experimental,high,medium,8.0,YES,168.38
13.0,90.0,12.0,experimental,high,medium,10.0,YES,272.94
13.0,79.0,13.0,experimental,high,long,13.0,YES,248.44
13.0,19.0,14.0,experimental,high,long,12.0,YES,184.95
13.0,50.0,15.0,experimental,high,long,13.0,YES,256.27
13.0,103.0,16.0,experimental,high,long,12.0,YES,176.95
13.0,44.0,17.0,experimental,high,long,12.0,YES,239.71
13.0,9.0,18.0,experimental,high,long,14.0,YES,284.21000000000004
13.0,7.0,19.0,experimental,medium,short,3.0,YES,108.06
13.0,24.0,20.0,experimental,medium,short,3.0,YES,194.62
13.0,72.0,21.0,experimental,medium,short,3.0,NO,90.22999999999999
13.0,77.0,22.0,experimental,medium,short,4.0,YES,206.16
13.0,23.0,23.0,experimental,medium,short,3.0,YES,151.74
13.0,56.0,24.0,experimental,medium,short,5.0,YES,239.07
13.0,86.0,25.0,experimental,medium,medium,6.0,YES,279.40999999999997
13.0,99.0,26.0,experimental,medium,medium,8.0,YES,300.37
13.0,100.0,27.0,experimental,medium,medium,8.0,YES,262.02
13.0,31.0,28.0,experimental,medium,medium,6.0,YES,513.62
13.0,51.0,29.0,experimental,medium,medium,9.0,YES,358.8
13.0,39.0,30.0,experimental,medium,medium,7.0,YES,283.16999999999996
13.0,63.0,31.0,experimental,medium,long,15.0,YES,228.93
13.0,13.0,32.0,experimental,medium,long,16.0,YES,276.19
13.0,30.0,33.0,experimental,medium,long,16.0,YES,310.31
13.0,46.0,34.0,experimental,medium,long,14.0,YES,184.19
13.0,87.0,35.0,experimental,medium,long,11.0,YES,300.46
13.0,107.0,36.0,experimental,medium,long,12.0,YES,382.9
13.0,83.0,37.0,experimental,low,short,5.0,YES,399.64
13.0,95.0,38.0,experimental,low,short,4.0,YES,288.68
13.0,104.0,39.0,experimental,low,short,5.0,YES,110.36
13.0,67.0,40.0,experimental,low,short,2.0,YES,146.49
13.0,58.0,41.0,experimental,low,short,4.0,YES,213.34
13.0,42.0,42.0,experimental,low,short,3.0,YES,186.46
13.0,26.0,43.0,experimental,low,medium,8.0,YES,193.16
13.0,105.0,44.0,experimental,low,medium,9.0,YES,637.02
13.0,22.0,45.0,experimental,low,medium,8.0,YES,221.17
13.0,98.0,46.0,experimental,low,medium,9.0,YES,157.54000000000002
13.0,88.0,47.0,experimental,low,medium,9.0,YES,181.66
13.0,53.0,48.0,experimental,low,medium,9.0,YES,235.65
13.0,28.0,49.0,experimental,low,long,14.0,YES,179.44
13.0,101.0,50.0,experimental,low,long,13.0,YES,126.5
13.0,60.0,51.0,experimental,low,long,12.0,YES,362.52
13.0,55.0,52.0,experimental,low,long,15.0,YES,240.03
13.0,25.0,53.0,experimental,low,long,15.0,YES,368.74
13.0,27.0,54.0,experimental,low,long,16.0,YES,179.43
13.0,47.0,101.0,filler,,short,3.0,NO,107.27
13.0,36.0,102.0,filler,,short,3.0,NO,138.53
13.0,33.0,103.0,filler,,short,3.0,NO,155.28
13.0,81.0,104.0,filler,,short,2.0,NO,167.9
13.0,40.0,105.0,filler,,short,4.0,NO,213.43
13.0,10.0,106.0,filler,,short,3.0,NO,182.13
13.0,41.0,107.0,filler,,medium,8.0,NO,209.39
13.0,80.0,108.0,filler,,medium,9.0,NO,230.25
13.0,52.0,109.0,filler,,medium,10.0,NO,193.32
13.0,75.0,110.0,filler,,medium,10.0,NO,194.17
13.0,94.0,111.0,filler,,medium,6.0,NO,195.01
13.0,102.0,112.0,filler,,medium,10.0,NO,266.46000000000004
13.0,70.0,113.0,filler,,long,15.0,NO,200.71
13.0,34.0,114.0,filler,,long,12.0,NO,159.79000000000002
13.0,89.0,115.0,filler,,long,16.0,NO,170.82
13.0,92.0,116.0,filler,,long,13.0,YES,218.19
13.0,78.0,117.0,filler,,long,15.0,NO,228.83
13.0,66.0,118.0,filler,,long,12.0,NO,243.53
13.0,43.0,119.0,filler,,short,3.0,NO,222.05
13.0,93.0,120.0,filler,,short,3.0,NO,254.72
13.0,69.0,121.0,filler,,short,4.0,NO,112.65
13.0,61.0,122.0,filler,,short,3.0,NO,422.31
13.0,37.0,123.0,filler,,short,4.0,NO,189.45
13.0,108.0,124.0,filler,,short,3.0,YES,369.57
13.0,49.0,125.0,filler,,medium,7.0,NO,238.71
13.0,85.0,126.0,filler,,medium,6.0,NO,260.96000000000004
13.0,48.0,127.0,filler,,medium,8.0,NO,210.22
13.0,65.0,128.0,filler,,medium,6.0,NO,263.03999999999996
13.0,12.0,129.0,filler,,medium,9.0,NO,356.3
13.0,38.0,130.0,filler,,medium,9.0,NO,508.71000000000004
13.0,14.0,131.0,filler,,long,16.0,NO,288.74
13.0,96.0,132.0,filler,,long,16.0,NO,295.36
13.0,8.0,133.0,filler,,long,12.0,NO,245.49
13.0,32.0,134.0,filler,,long,16.0,NO,196.69
13.0,84.0,135.0,filler,,long,14.0,NO,301.82
13.0,97.0,136.0,filler,,long,14.0,NO,256.27
13.0,29.0,137.0,filler,,short,3.0,NO,190.12
13.0,3.0,138.0,filler,,short,3.0,NO,330.72
13.0,74.0,139.0,filler,,short,4.0,NO,372.47
13.0,1.0,140.0,filler,,short,4.0,NO,135.36
13.0,82.0,141.0,filler,,short,5.0,NO,268.98
13.0,64.0,142.0,filler,,short,3.0,NO,440.76
13.0,106.0,143.0,filler,,medium,8.0,NO,267.91999999999996
13.0,18.0,144.0,filler,,medium,9.0,NO,227.05
13.0,6.0,145.0,filler,,medium,9.0,NO,116.37
13.0,45.0,146.0,filler,,medium,10.0,NO,104.58
13.0,4.0,147.0,filler,,medium,10.0,NO,231.94
13.0,21.0,148.0,filler,,medium,9.0,NO,334.52
13.0,57.0,149.0,filler,,long,14.0,NO,310.44
13.0,54.0,150.0,filler,,long,16.0,NO,126.0
13.0,20.0,151.0,filler,,long,14.0,NO,262.40999999999997
13.0,73.0,152.0,filler,,long,15.0,NO,265.6
13.0,11.0,153.0,filler,,long,15.0,NO,126.82
13.0,35.0,154.0,filler,,long,14.0,NO,170.79
14.0,48.0,1.0,experimental,high,short,3.0,YES,85.35
14.0,57.0,2.0,experimental,high,short,4.0,YES,118.16
14.0,98.0,3.0,experimental,high,short,5.0,NO,172.71
14.0,35.0,4.0,experimental,high,short,3.0,YES,113.41
14.0,30.0,5.0,experimental,high,short,5.0,NO,180.12
14.0,10.0,6.0,experimental,high,short,4.0,YES,157.61
14.0,69.0,7.0,experimental,high,medium,10.0,YES,138.32999999999998
14.0,96.0,8.0,experimental,high,medium,9.0,YES,234.39
14.0,33.0,9.0,experimental,high,medium,8.0,YES,155.7
14.0,64.0,10.0,experimental,high,medium,10.0,YES,169.33
14.0,28.0,11.0,experimental,high,medium,6.0,YES,226.76
14.0,83.0,12.0,experimental,high,medium,6.0,YES,280.28
14.0,74.0,13.0,experimental,high,long,15.0,YES,225.69
14.0,92.0,14.0,experimental,high,long,13.0,YES,251.08
14.0,89.0,15.0,experimental,high,long,16.0,YES,163.2
14.0,39.0,16.0,experimental,high,long,13.0,YES,179.6
14.0,79.0,17.0,experimental,high,long,12.0,YES,205.85
14.0,97.0,18.0,experimental,high,long,12.0,YES,279.41999999999996
14.0,82.0,19.0,experimental,medium,short,3.0,YES,212.2
14.0,78.0,20.0,experimental,medium,short,2.0,YES,198.65
14.0,1.0,21.0,experimental,medium,short,4.0,YES,128.82
14.0,22.0,22.0,experimental,medium,short,5.0,YES,290.55
14.0,49.0,23.0,experimental,medium,short,4.0,YES,230.25
14.0,53.0,24.0,experimental,medium,short,4.0,YES,276.81
14.0,105.0,25.0,experimental,medium,medium,6.0,YES,282.0
14.0,94.0,26.0,experimental,medium,medium,9.0,YES,168.86
14.0,29.0,27.0,experimental,medium,medium,7.0,NO,244.79
14.0,21.0,28.0,experimental,medium,medium,6.0,YES,180.87
14.0,103.0,29.0,experimental,medium,medium,8.0,YES,276.77
14.0,16.0,30.0,experimental,medium,medium,10.0,YES,213.83
14.0,25.0,31.0,experimental,medium,long,16.0,YES,154.01
14.0,107.0,32.0,experimental,medium,long,14.0,YES,215.27
14.0,75.0,33.0,experimental,medium,long,14.0,YES,315.38
14.0,18.0,34.0,experimental,medium,long,15.0,YES,286.69
14.0,90.0,35.0,experimental,medium,long,13.0,YES,306.82
14.0,34.0,36.0,experimental,medium,long,12.0,YES,255.42
14.0,17.0,37.0,experimental,low,short,4.0,YES,200.19
14.0,3.0,38.0,experimental,low,short,5.0,YES,140.17000000000002
14.0,62.0,39.0,experimental,low,short,2.0,YES,296.06
14.0,46.0,40.0,experimental,low,short,4.0,YES,148.04000000000002
14.0,36.0,41.0,experimental,low,short,4.0,YES,285.03
14.0,77.0,42.0,experimental,low,short,3.0,YES,293.61
14.0,52.0,43.0,experimental,low,medium,10.0,YES,321.34
14.0,27.0,44.0,experimental,low,medium,7.0,YES,142.48000000000002
14.0,51.0,45.0,experimental,low,medium,9.0,YES,271.87
14.0,72.0,46.0,experimental,low,medium,10.0,YES,515.0799999999999
14.0,19.0,47.0,experimental,low,medium,9.0,YES,344.48
14.0,67.0,48.0,experimental,low,medium,7.0,YES,310.78
14.0,11.0,49.0,experimental,low,long,15.0,YES,376.17
14.0,70.0,50.0,experimental,low,long,15.0,YES,101.35
14.0,43.0,51.0,experimental,low,long,12.0,YES,170.88
14.0,9.0,52.0,experimental,low,long,16.0,YES,172.43
14.0,68.0,53.0,experimental,low,long,14.0,YES,397.53
14.0,15.0,54.0,experimental,low,long,13.0,YES,196.65
14.0,40.0,101.0,filler,,short,4.0,YES,161.48000000000002
14.0,38.0,102.0,filler,,short,4.0,NO,170.65
14.0,13.0,103.0,filler,,short,4.0,NO,123.09
14.0,42.0,104.0,filler,,short,3.0,NO,160.53
14.0,108.0,105.0,filler,,short,3.0,NO,193.94
14.0,54.0,106.0,filler,,short,5.0,NO,219.04
14.0,6.0,107.0,filler,,medium,6.0,NO,172.07
14.0,66.0,108.0,filler,,medium,10.0,NO,236.96
14.0,104.0,109.0,filler,,medium,8.0,NO,226.11
14.0,14.0,110.0,filler,,medium,7.0,NO,243.34
14.0,41.0,111.0,filler,,medium,6.0,NO,244.42
14.0,86.0,112.0,filler,,medium,8.0,NO,281.23
14.0,102.0,113.0,filler,,long,12.0,NO,189.94
14.0,61.0,114.0,filler,,long,12.0,NO,170.69
14.0,73.0,115.0,filler,,long,15.0,NO,220.18
14.0,91.0,116.0,filler,,long,11.0,NO,210.71
14.0,44.0,117.0,filler,,long,16.0,NO,222.3
14.0,55.0,118.0,filler,,long,15.0,NO,280.43
14.0,23.0,119.0,filler,,short,3.0,NO,173.07
14.0,76.0,120.0,filler,,short,3.0,NO,278.48
14.0,81.0,121.0,filler,,short,3.0,NO,112.56
14.0,37.0,122.0,filler,,short,3.0,NO,196.64
14.0,59.0,123.0,filler,,short,3.0,NO,294.09000000000003
14.0,100.0,124.0,filler,,short,4.0,NO,329.77
14.0,2.0,125.0,filler,,medium,10.0,NO,186.22
14.0,93.0,126.0,filler,,medium,8.0,NO,228.46
14.0,95.0,127.0,filler,,medium,8.0,NO,216.81
14.0,4.0,128.0,filler,,medium,7.0,NO,194.49
14.0,63.0,129.0,filler,,medium,7.0,NO,487.06
14.0,71.0,130.0,filler,,medium,8.0,NO,368.79
14.0,47.0,131.0,filler,,long,16.0,NO,184.66
14.0,5.0,132.0,filler,,long,12.0,NO,332.27
14.0,84.0,133.0,filler,,long,15.0,NO,277.68
14.0,88.0,134.0,filler,,long,15.0,NO,433.09
14.0,50.0,135.0,filler,,long,13.0,NO,309.64
14.0,106.0,136.0,filler,,long,16.0,NO,247.86
14.0,85.0,137.0,filler,,short,3.0,YES,139.68
14.0,87.0,138.0,filler,,short,4.0,NO,590.3399999999999
14.0,26.0,139.0,filler,,short,2.0,NO,478.8299999999999
14.0,99.0,140.0,filler,,short,4.0,NO,300.97
14.0,8.0,141.0,filler,,short,5.0,NO,329.52
14.0,24.0,142.0,filler,,short,3.0,NO,270.83000000000004
14.0,58.0,143.0,filler,,medium,9.0,NO,271.12
14.0,65.0,144.0,filler,,medium,8.0,NO,276.19
14.0,45.0,145.0,filler,,medium,6.0,NO,119.96
14.0,32.0,146.0,filler,,medium,10.0,NO,292.39
14.0,56.0,147.0,filler,,medium,9.0,NO,162.07999999999998
14.0,60.0,148.0,filler,,medium,9.0,NO,181.41
14.0,12.0,149.0,filler,,long,14.0,NO,607.24
14.0,80.0,150.0,filler,,long,12.0,NO,201.85
14.0,20.0,151.0,filler,,long,11.0,NO,184.0
14.0,7.0,152.0,filler,,long,13.0,NO,193.43
14.0,31.0,153.0,filler,,long,14.0,YES,742.21
14.0,101.0,154.0,filler,,long,13.0,NO,354.3
15.0,5.0,1.0,experimental,high,short,3.0,YES,117.02
15.0,74.0,2.0,experimental,high,short,4.0,YES,153.89
15.0,34.0,3.0,experimental,high,short,2.0,YES,120.56
15.0,79.0,4.0,experimental,high,short,3.0,YES,113.74
15.0,61.0,5.0,experimental,high,short,3.0,YES,173.83
15.0,37.0,6.0,experimental,high,short,2.0,YES,198.47
15.0,94.0,7.0,experimental,high,medium,9.0,YES,162.82999999999998
15.0,50.0,8.0,experimental,high,medium,9.0,YES,143.82
15.0,31.0,9.0,experimental,high,medium,8.0,YES,160.39
15.0,60.0,10.0,experimental,high,medium,7.0,YES,183.06
15.0,12.0,11.0,experimental,high,medium,8.0,YES,184.55
15.0,15.0,12.0,experimental,high,medium,7.0,YES,228.41
15.0,91.0,13.0,experimental,high,long,15.0,YES,226.27
15.0,73.0,14.0,experimental,high,long,12.0,YES,206.16
15.0,35.0,15.0,experimental,high,long,14.0,YES,194.73
15.0,27.0,16.0,experimental,high,long,14.0,YES,159.24
15.0,19.0,17.0,experimental,high,long,15.0,YES,193.49
15.0,86.0,18.0,experimental,high,long,11.0,YES,294.4
15.0,18.0,19.0,experimental,medium,short,5.0,NO,80.15
15.0,75.0,20.0,experimental,medium,short,4.0,YES,151.94
15.0,105.0,21.0,experimental,medium,short,4.0,YES,239.21
15.0,20.0,22.0,experimental,medium,short,4.0,YES,130.3
15.0,62.0,23.0,experimental,medium,short,4.0,YES,241.94
15.0,16.0,24.0,experimental,medium,short,3.0,YES,242.17
15.0,71.0,25.0,experimental,medium,medium,7.0,YES,145.51999999999998
15.0,107.0,26.0,experimental,medium,medium,7.0,YES,166.67000000000002
15.0,21.0,27.0,experimental,medium,medium,6.0,YES,162.66
15.0,49.0,28.0,experimental,medium,medium,6.0,YES,166.66
15.0,26.0,29.0,experimental,medium,medium,9.0,YES,226.02
15.0,80.0,30.0,experimental,medium,medium,8.0,YES,310.2
15.0,54.0,31.0,experimental,medium,long,15.0,YES,281.53
15.0,69.0,32.0,experimental,medium,long,15.0,YES,178.74
15.0,102.0,33.0,experimental,medium,long,12.0,YES,720.2
15.0,29.0,34.0,experimental,medium,long,14.0,YES,470.74
15.0,100.0,35.0,experimental,medium,long,15.0,NO,440.44
15.0,98.0,36.0,experimental,medium,long,15.0,YES,351.34
15.0,24.0,37.0,experimental,low,short,2.0,YES,102.64
15.0,84.0,38.0,experimental,low,short,5.0,YES,609.73
15.0,33.0,39.0,experimental,low,short,2.0,YES,258.0
15.0,36.0,40.0,experimental,low,short,4.0,YES,572.06
15.0,44.0,41.0,experimental,low,short,4.0,YES,122.56
15.0,70.0,42.0,experimental,low,short,2.0,YES,402.9
15.0,103.0,43.0,experimental,low,medium,8.0,YES,255.28
15.0,83.0,44.0,experimental,low,medium,7.0,YES,267.45
15.0,64.0,45.0,experimental,low,medium,9.0,YES,727.97
15.0,56.0,46.0,experimental,low,medium,6.0,YES,816.61
15.0,25.0,47.0,experimental,low,medium,10.0,YES,360.86
15.0,11.0,48.0,experimental,low,medium,10.0,YES,514.81
15.0,45.0,49.0,experimental,low,long,15.0,YES,353.56
15.0,68.0,50.0,experimental,low,long,12.0,YES,176.14
15.0,108.0,51.0,experimental,low,long,14.0,YES,256.45
15.0,58.0,52.0,experimental,low,long,15.0,YES,237.71
15.0,97.0,53.0,experimental,low,long,13.0,YES,785.22
15.0,32.0,54.0,experimental,low,long,16.0,YES,382.33
15.0,65.0,101.0,filler,,short,5.0,NO,149.8
15.0,6.0,102.0,filler,,short,3.0,NO,159.68
15.0,53.0,103.0,filler,,short,2.0,NO,171.39
15.0,41.0,104.0,filler,,short,4.0,NO,204.48
15.0,22.0,105.0,filler,,short,5.0,NO,165.8
15.0,89.0,106.0,filler,,short,3.0,NO,277.73
15.0,85.0,107.0,filler,,medium,9.0,NO,248.16
15.0,14.0,108.0,filler,,medium,7.0,NO,155.44
15.0,17.0,109.0,filler,,medium,6.0,NO,169.35
15.0,47.0,110.0,filler,,medium,8.0,NO,193.11
15.0,2.0,111.0,filler,,medium,9.0,NO,226.73
15.0,43.0,112.0,filler,,medium,8.0,NO,279.12
15.0,30.0,113.0,filler,,long,13.0,NO,170.69
15.0,57.0,114.0,filler,,long,16.0,NO,158.41
15.0,38.0,115.0,filler,,long,12.0,NO,250.75
15.0,63.0,116.0,filler,,long,12.0,NO,218.96
15.0,93.0,117.0,filler,,long,11.0,NO,213.38
15.0,39.0,118.0,filler,,long,13.0,NO,291.51
15.0,87.0,119.0,filler,,short,4.0,NO,277.53
15.0,8.0,120.0,filler,,short,4.0,NO,281.86
15.0,40.0,121.0,filler,,short,2.0,NO,186.02
15.0,51.0,122.0,filler,,short,4.0,NO,178.86
15.0,82.0,123.0,filler,,short,2.0,NO,186.5
15.0,28.0,124.0,filler,,short,3.0,NO,348.68
15.0,59.0,125.0,filler,,medium,8.0,NO,162.99
15.0,1.0,126.0,filler,,medium,7.0,NO,307.37
15.0,101.0,127.0,filler,,medium,8.0,NO,273.41999999999996
15.0,90.0,128.0,filler,,medium,7.0,NO,249.77
15.0,81.0,129.0,filler,,medium,8.0,NO,207.39
15.0,72.0,130.0,filler,,medium,6.0,NO,309.0
15.0,96.0,131.0,filler,,long,14.0,NO,305.1
15.0,10.0,132.0,filler,,long,13.0,NO,207.32
15.0,88.0,133.0,filler,,long,15.0,NO,215.65
15.0,106.0,134.0,filler,,long,13.0,NO,197.25
15.0,104.0,135.0,filler,,long,14.0,NO,464.31999999999994
15.0,9.0,136.0,filler,,long,14.0,NO,600.6600000000001
15.0,99.0,137.0,filler,,short,3.0,NO,369.03
15.0,52.0,138.0,filler,,short,5.0,NO,117.55
15.0,76.0,139.0,filler,,short,5.0,NO,139.1
15.0,4.0,140.0,filler,,short,4.0,NO,124.86
15.0,95.0,141.0,filler,,short,4.0,NO,155.67000000000002
15.0,46.0,142.0,filler,,short,4.0,NO,458.44000000000005
15.0,7.0,143.0,filler,,medium,7.0,NO,313.43
15.0,23.0,144.0,filler,,medium,9.0,NO,264.26
15.0,67.0,145.0,filler,,medium,8.0,NO,188.85
15.0,78.0,146.0,filler,,medium,7.0,NO,247.02
15.0,42.0,147.0,filler,,medium,8.0,NO,370.2
15.0,77.0,148.0,filler,,medium,7.0,NO,240.68
15.0,48.0,149.0,filler,,long,13.0,YES,121.83
15.0,13.0,150.0,filler,,long,11.0,NO,142.76999999999998
15.0,92.0,151.0,filler,,long,14.0,NO,115.88
15.0,3.0,152.0,filler,,long,11.0,NO,220.44
15.0,66.0,153.0,filler,,long,15.0,NO,281.85
15.0,55.0,154.0,filler,,long,15.0,NO,252.39
16.0,84.0,1.0,experimental,high,short,2.0,YES,89.18
16.0,47.0,2.0,experimental,high,short,3.0,YES,159.45999999999998
16.0,50.0,3.0,experimental,high,short,3.0,YES,135.65
16.0,70.0,4.0,experimental,high,short,2.0,YES,150.2
16.0,75.0,5.0,experimental,high,short,2.0,YES,216.03
16.0,72.0,6.0,experimental,high,short,5.0,YES,155.73000000000002
16.0,54.0,7.0,experimental,high,medium,7.0,YES,153.18
16.0,45.0,8.0,experimental,high,medium,9.0,YES,238.61
16.0,81.0,9.0,experimental,high,medium,9.0,YES,142.91
16.0,17.0,10.0,experimental,high,medium,6.0,YES,207.03
16.0,67.0,11.0,experimental,high,medium,8.0,YES,186.47
16.0,104.0,12.0,experimental,high,medium,8.0,YES,263.61
16.0,25.0,13.0,experimental,high,long,13.0,YES,167.25
16.0,79.0,14.0,experimental,high,long,15.0,NO,165.15
16.0,24.0,15.0,experimental,high,long,16.0,YES,186.19
16.0,102.0,16.0,experimental,high,long,13.0,YES,228.31
16.0,52.0,17.0,experimental,high,long,13.0,YES,222.21
16.0,21.0,18.0,experimental,high,long,13.0,YES,268.99
16.0,80.0,19.0,experimental,medium,short,3.0,YES,180.15
16.0,73.0,20.0,experimental,medium,short,4.0,YES,227.42
16.0,63.0,21.0,experimental,medium,short,2.0,YES,216.54
16.0,51.0,22.0,experimental,medium,short,3.0,YES,249.31
16.0,98.0,23.0,experimental,medium,short,2.0,YES,206.22
16.0,49.0,24.0,experimental,medium,short,5.0,YES,319.78
16.0,7.0,25.0,experimental,medium,medium,9.0,YES,232.34
16.0,108.0,26.0,experimental,medium,medium,8.0,YES,168.38
16.0,90.0,27.0,experimental,medium,medium,8.0,YES,292.49
16.0,16.0,28.0,experimental,medium,medium,7.0,YES,335.71
16.0,62.0,29.0,experimental,medium,medium,6.0,YES,237.61
16.0,32.0,30.0,experimental,medium,medium,10.0,YES,303.31
16.0,38.0,31.0,experimental,medium,long,13.0,YES,305.39
16.0,35.0,32.0,experimental,medium,long,15.0,YES,193.03
16.0,65.0,33.0,experimental,medium,long,11.0,YES,326.38
16.0,89.0,34.0,experimental,medium,long,11.0,YES,217.83
16.0,56.0,35.0,experimental,medium,long,12.0,YES,206.46
16.0,97.0,36.0,experimental,medium,long,14.0,YES,289.82
16.0,83.0,37.0,experimental,low,short,5.0,YES,141.07
16.0,23.0,38.0,experimental,low,short,2.0,YES,151.32999999999998
16.0,26.0,39.0,experimental,low,short,5.0,YES,249.7
16.0,12.0,40.0,experimental,low,short,3.0,YES,274.94
16.0,42.0,41.0,experimental,low,short,2.0,YES,695.87
16.0,13.0,42.0,experimental,low,short,4.0,YES,483.16
16.0,78.0,43.0,experimental,low,medium,9.0,YES,322.26
16.0,64.0,44.0,experimental,low,medium,7.0,YES,328.7
16.0,99.0,45.0,experimental,low,medium,7.0,YES,263.78
16.0,37.0,46.0,experimental,low,medium,9.0,YES,584.5
16.0,95.0,47.0,experimental,low,medium,9.0,YES,292.28
16.0,31.0,48.0,experimental,low,medium,7.0,YES,459.09
16.0,103.0,49.0,experimental,low,long,15.0,YES,93.03
16.0,105.0,50.0,experimental,low,long,13.0,YES,85.75
16.0,93.0,51.0,experimental,low,long,16.0,YES,142.01
16.0,57.0,52.0,experimental,low,long,13.0,YES,266.55
16.0,36.0,53.0,experimental,low,long,15.0,YES,174.46
16.0,96.0,54.0,experimental,low,long,14.0,YES,241.67
16.0,34.0,101.0,filler,,short,3.0,NO,160.09
16.0,1.0,102.0,filler,,short,3.0,NO,161.4
16.0,33.0,103.0,filler,,short,4.0,NO,140.65
16.0,3.0,104.0,filler,,short,4.0,NO,124.51
16.0,59.0,105.0,filler,,short,2.0,NO,246.73
16.0,69.0,106.0,filler,,short,4.0,NO,247.69
16.0,60.0,107.0,filler,,medium,7.0,NO,172.07
16.0,106.0,108.0,filler,,medium,9.0,NO,246.01
16.0,77.0,109.0,filler,,medium,9.0,NO,235.77
16.0,58.0,110.0,filler,,medium,7.0,NO,253.29
16.0,86.0,111.0,filler,,medium,10.0,NO,292.0
16.0,19.0,112.0,filler,,medium,9.0,NO,247.01
16.0,85.0,113.0,filler,,long,16.0,NO,174.57
16.0,41.0,114.0,filler,,long,11.0,NO,245.89
16.0,53.0,115.0,filler,,long,13.0,NO,227.32
16.0,29.0,116.0,filler,,long,11.0,NO,259.40999999999997
16.0,44.0,117.0,filler,,long,12.0,NO,257.41999999999996
16.0,74.0,118.0,filler,,long,14.0,NO,432.8
16.0,100.0,119.0,filler,,short,4.0,NO,124.21
16.0,61.0,120.0,filler,,short,5.0,NO,269.64
16.0,82.0,121.0,filler,,short,3.0,NO,143.65
16.0,2.0,122.0,filler,,short,3.0,NO,391.44
16.0,22.0,123.0,filler,,short,5.0,NO,212.79
16.0,18.0,124.0,filler,,short,3.0,NO,555.22
16.0,14.0,125.0,filler,,medium,7.0,NO,174.83
16.0,76.0,126.0,filler,,medium,8.0,NO,349.61
16.0,91.0,127.0,filler,,medium,7.0,NO,252.02
16.0,28.0,128.0,filler,,medium,8.0,NO,195.52
16.0,68.0,129.0,filler,,medium,8.0,NO,246.52
16.0,5.0,130.0,filler,,medium,8.0,NO,425.67
16.0,15.0,131.0,filler,,long,12.0,NO,162.74
16.0,55.0,132.0,filler,,long,14.0,NO,163.59
16.0,46.0,133.0,filler,,long,14.0,NO,356.59
16.0,4.0,134.0,filler,,long,13.0,NO,311.89
16.0,48.0,135.0,filler,,long,14.0,NO,267.15
16.0,87.0,136.0,filler,,long,13.0,NO,344.18
16.0,10.0,137.0,filler,,short,4.0,NO,266.4
16.0,27.0,138.0,filler,,short,3.0,NO,238.35
16.0,43.0,139.0,filler,,short,3.0,NO,256.41999999999996
16.0,66.0,140.0,filler,,short,5.0,NO,358.97
16.0,9.0,141.0,filler,,short,2.0,NO,233.01
16.0,92.0,142.0,filler,,short,4.0,NO,877.72
16.0,71.0,143.0,filler,,medium,6.0,NO,180.69
16.0,11.0,144.0,filler,,medium,8.0,NO,270.03999999999996
16.0,30.0,145.0,filler,,medium,8.0,NO,190.1
16.0,20.0,146.0,filler,,medium,6.0,NO,168.3
16.0,40.0,147.0,filler,,medium,9.0,NO,220.51
16.0,107.0,148.0,filler,,medium,6.0,NO,375.24
16.0,39.0,149.0,filler,,long,13.0,NO,313.02
16.0,94.0,150.0,filler,,long,11.0,NO,352.09
16.0,6.0,151.0,filler,,long,12.0,NO,291.22
16.0,88.0,152.0,filler,,long,16.0,NO,127.79
16.0,101.0,153.0,filler,,long,14.0,NO,301.08
16.0,8.0,154.0,filler,,long,12.0,NO,196.72
17.0,19.0,1.0,experimental,high,short,3.0,YES,107.53
17.0,3.0,2.0,experimental,high,short,3.0,YES,161.53
17.0,73.0,3.0,experimental,high,short,3.0,YES,104.93
17.0,52.0,4.0,experimental,high,short,4.0,YES,163.91
17.0,59.0,5.0,experimental,high,short,2.0,YES,202.66
17.0,9.0,6.0,experimental,high,short,2.0,YES,211.2
17.0,55.0,7.0,experimental,high,medium,9.0,YES,208.3
17.0,41.0,8.0,experimental,high,medium,8.0,NO,201.37
17.0,13.0,9.0,experimental,high,medium,10.0,YES,146.92000000000002
17.0,29.0,10.0,experimental,high,medium,7.0,YES,136.56
17.0,76.0,11.0,experimental,high,medium,9.0,YES,209.07
17.0,61.0,12.0,experimental,high,medium,7.0,YES,223.26
17.0,69.0,13.0,experimental,high,long,12.0,YES,215.42
17.0,33.0,14.0,experimental,high,long,15.0,YES,163.87
17.0,82.0,15.0,experimental,high,long,14.0,YES,170.26
17.0,17.0,16.0,experimental,high,long,12.0,YES,261.48
17.0,95.0,17.0,experimental,high,long,16.0,YES,204.97
17.0,60.0,18.0,experimental,high,long,11.0,YES,248.29
17.0,2.0,19.0,experimental,medium,short,3.0,YES,246.7
17.0,92.0,20.0,experimental,medium,short,3.0,YES,200.54
17.0,75.0,21.0,experimental,medium,short,4.0,YES,137.88
17.0,77.0,22.0,experimental,medium,short,4.0,YES,208.62
17.0,108.0,23.0,experimental,medium,short,5.0,YES,248.78
17.0,70.0,24.0,experimental,medium,short,3.0,YES,257.01
17.0,80.0,25.0,experimental,medium,medium,8.0,YES,187.73
17.0,39.0,26.0,experimental,medium,medium,6.0,YES,235.58
17.0,7.0,27.0,experimental,medium,medium,9.0,YES,193.24
17.0,91.0,28.0,experimental,medium,medium,7.0,YES,295.4
17.0,72.0,29.0,experimental,medium,medium,9.0,YES,295.86
17.0,37.0,30.0,experimental,medium,medium,9.0,YES,252.54
17.0,103.0,31.0,experimental,medium,long,15.0,YES,306.24
17.0,21.0,32.0,experimental,medium,long,15.0,YES,337.26
17.0,46.0,33.0,experimental,medium,long,15.0,YES,162.36
17.0,34.0,34.0,experimental,medium,long,14.0,YES,307.1
17.0,58.0,35.0,experimental,medium,long,12.0,YES,254.41
17.0,6.0,36.0,experimental,medium,long,14.0,YES,773.88
17.0,97.0,37.0,experimental,low,short,2.0,YES,113.62
17.0,31.0,38.0,experimental,low,short,2.0,YES,165.17000000000002
17.0,12.0,39.0,experimental,low,short,4.0,YES,101.09
17.0,47.0,40.0,experimental,low,short,3.0,YES,447.87
17.0,89.0,41.0,experimental,low,short,3.0,YES,385.94
17.0,8.0,42.0,experimental,low,short,5.0,YES,288.82
17.0,4.0,43.0,experimental,low,medium,7.0,YES,261.15
17.0,107.0,44.0,experimental,low,medium,8.0,YES,840.81
17.0,62.0,45.0,experimental,low,medium,8.0,YES,443.9
17.0,44.0,46.0,experimental,low,medium,7.0,YES,422.26
17.0,50.0,47.0,experimental,low,medium,10.0,YES,582.1800000000001
17.0,23.0,48.0,experimental,low,medium,9.0,YES,368.67
17.0,28.0,49.0,experimental,low,long,15.0,YES,218.08
17.0,45.0,50.0,experimental,low,long,13.0,YES,105.93
17.0,30.0,51.0,experimental,low,long,15.0,YES,162.62
17.0,32.0,52.0,experimental,low,long,12.0,YES,236.56
17.0,66.0,53.0,experimental,low,long,15.0,YES,132.24
17.0,20.0,54.0,experimental,low,long,12.0,YES,201.49
17.0,14.0,101.0,filler,,short,4.0,NO,137.9
17.0,68.0,102.0,filler,,short,3.0,NO,127.68
17.0,36.0,103.0,filler,,short,3.0,NO,178.12
17.0,63.0,104.0,filler,,short,4.0,NO,193.12
17.0,15.0,105.0,filler,,short,5.0,NO,199.08
17.0,104.0,106.0,filler,,short,4.0,NO,264.05
17.0,10.0,107.0,filler,,medium,7.0,NO,165.49
17.0,67.0,108.0,filler,,medium,9.0,NO,180.38
17.0,51.0,109.0,filler,,medium,7.0,NO,234.77
17.0,65.0,110.0,filler,,medium,9.0,NO,255.91
17.0,53.0,111.0,filler,,medium,7.0,NO,276.03
17.0,79.0,112.0,filler,,medium,7.0,NO,230.88
17.0,25.0,113.0,filler,,long,14.0,NO,236.05
17.0,74.0,114.0,filler,,long,14.0,NO,255.26
17.0,94.0,115.0,filler,,long,14.0,NO,241.32
17.0,93.0,116.0,filler,,long,12.0,NO,255.05
17.0,83.0,117.0,filler,,long,15.0,NO,244.24
17.0,99.0,118.0,filler,,long,13.0,NO,266.3
17.0,40.0,119.0,filler,,short,3.0,NO,172.86
17.0,71.0,120.0,filler,,short,2.0,NO,224.04
17.0,26.0,121.0,filler,,short,3.0,NO,292.94
17.0,98.0,122.0,filler,,short,5.0,NO,158.9
17.0,48.0,123.0,filler,,short,5.0,NO,596.45
17.0,84.0,124.0,filler,,short,4.0,NO,258.63
17.0,1.0,125.0,filler,,medium,8.0,NO,155.19
17.0,11.0,126.0,filler,,medium,7.0,NO,179.14
17.0,54.0,127.0,filler,,medium,8.0,NO,298.06
17.0,78.0,128.0,filler,,medium,7.0,NO,201.63
17.0,56.0,129.0,filler,,medium,9.0,NO,463.66
17.0,22.0,130.0,filler,,medium,7.0,NO,296.62
17.0,42.0,131.0,filler,,long,14.0,NO,288.25
17.0,88.0,132.0,filler,,long,12.0,NO,251.39
17.0,81.0,133.0,filler,,long,15.0,NO,161.70999999999998
17.0,16.0,134.0,filler,,long,12.0,NO,207.97
17.0,27.0,135.0,filler,,long,14.0,NO,291.15
17.0,38.0,136.0,filler,,long,14.0,NO,316.85
17.0,90.0,137.0,filler,,short,4.0,NO,373.78
17.0,100.0,138.0,filler,,short,2.0,NO,323.44
17.0,106.0,139.0,filler,,short,3.0,NO,348.02
17.0,24.0,140.0,filler,,short,4.0,NO,157.95
17.0,96.0,141.0,filler,,short,3.0,NO,145.66
17.0,101.0,142.0,filler,,short,3.0,NO,800.3
17.0,43.0,143.0,filler,,medium,8.0,NO,259.78999999999996
17.0,87.0,144.0,filler,,medium,9.0,NO,167.12
17.0,18.0,145.0,filler,,medium,8.0,NO,648.46
17.0,105.0,146.0,filler,,medium,9.0,NO,292.7
17.0,49.0,147.0,filler,,medium,7.0,NO,170.89
17.0,64.0,148.0,filler,,medium,8.0,NO,200.79
17.0,102.0,149.0,filler,,long,15.0,NO,152.57
17.0,5.0,150.0,filler,,long,16.0,NO,296.56
17.0,86.0,151.0,filler,,long,11.0,NO,463.39
17.0,57.0,152.0,filler,,long,15.0,NO,226.69
17.0,35.0,153.0,filler,,long,14.0,NO,336.14
17.0,85.0,154.0,filler,,long,11.0,NO,171.99
18.0,43.0,1.0,experimental,high,short,3.0,YES,90.75999999999999
18.0,23.0,2.0,experimental,high,short,3.0,YES,132.72
18.0,47.0,3.0,experimental,high,short,3.0,YES,106.79
18.0,60.0,4.0,experimental,high,short,5.0,YES,111.3
18.0,39.0,5.0,experimental,high,short,2.0,YES,210.93
18.0,105.0,6.0,experimental,high,short,2.0,YES,235.06
18.0,45.0,7.0,experimental,high,medium,8.0,YES,111.86
18.0,40.0,8.0,experimental,high,medium,7.0,YES,215.15
18.0,58.0,9.0,experimental,high,medium,10.0,YES,185.43
18.0,62.0,10.0,experimental,high,medium,9.0,YES,147.16
18.0,44.0,11.0,experimental,high,medium,8.0,YES,176.08
18.0,93.0,12.0,experimental,high,medium,8.0,YES,261.31
18.0,53.0,13.0,experimental,high,long,15.0,YES,179.97
18.0,18.0,14.0,experimental,high,long,14.0,YES,181.94
18.0,78.0,15.0,experimental,high,long,15.0,YES,199.75
18.0,3.0,16.0,experimental,high,long,12.0,YES,206.37
18.0,83.0,17.0,experimental,high,long,14.0,YES,233.67
18.0,9.0,18.0,experimental,high,long,16.0,YES,319.72
18.0,26.0,19.0,experimental,medium,short,3.0,YES,259.03999999999996
18.0,13.0,20.0,experimental,medium,short,4.0,YES,238.66
18.0,75.0,21.0,experimental,medium,short,2.0,YES,185.65
18.0,100.0,22.0,experimental,medium,short,3.0,YES,120.61
18.0,33.0,23.0,experimental,medium,short,3.0,YES,241.65
18.0,86.0,24.0,experimental,medium,short,3.0,YES,349.32
18.0,12.0,25.0,experimental,medium,medium,7.0,YES,286.9
18.0,67.0,26.0,experimental,medium,medium,8.0,YES,216.24
18.0,89.0,27.0,experimental,medium,medium,7.0,YES,209.26
18.0,94.0,28.0,experimental,medium,medium,7.0,YES,304.33
18.0,91.0,29.0,experimental,medium,medium,9.0,YES,604.74
18.0,46.0,30.0,experimental,medium,medium,7.0,YES,468.6700000000001
18.0,30.0,31.0,experimental,medium,long,14.0,YES,245.32
18.0,96.0,32.0,experimental,medium,long,12.0,YES,313.29
18.0,108.0,33.0,experimental,medium,long,15.0,YES,227.41
18.0,85.0,34.0,experimental,medium,long,16.0,YES,278.03999999999996
18.0,50.0,35.0,experimental,medium,long,14.0,NO,541.02
18.0,95.0,36.0,experimental,medium,long,14.0,YES,278.95
18.0,66.0,37.0,experimental,low,short,4.0,YES,350.35
18.0,25.0,38.0,experimental,low,short,5.0,YES,276.96000000000004
18.0,71.0,39.0,experimental,low,short,4.0,YES,249.54
18.0,22.0,40.0,experimental,low,short,4.0,YES,187.06
18.0,80.0,41.0,experimental,low,short,3.0,YES,329.84
18.0,82.0,42.0,experimental,low,short,5.0,NO,926.1800000000001
18.0,1.0,43.0,experimental,low,medium,9.0,YES,387.98
18.0,19.0,44.0,experimental,low,medium,9.0,YES,381.97
18.0,27.0,45.0,experimental,low,medium,8.0,YES,643.97
18.0,70.0,46.0,experimental,low,medium,9.0,YES,300.14
18.0,20.0,47.0,experimental,low,medium,7.0,YES,366.15
18.0,35.0,48.0,experimental,low,medium,7.0,YES,271.84000000000003
18.0,99.0,49.0,experimental,low,long,13.0,YES,143.70999999999998
18.0,10.0,50.0,experimental,low,long,16.0,YES,91.82
18.0,48.0,51.0,experimental,low,long,12.0,YES,491.32
18.0,87.0,52.0,experimental,low,long,16.0,YES,162.99
18.0,76.0,53.0,experimental,low,long,13.0,YES,288.48
18.0,68.0,54.0,experimental,low,long,13.0,YES,241.22
18.0,8.0,101.0,filler,,short,5.0,NO,120.84
18.0,98.0,102.0,filler,,short,2.0,NO,191.78
18.0,74.0,103.0,filler,,short,2.0,NO,154.36
18.0,101.0,104.0,filler,,short,4.0,NO,155.26999999999998
18.0,32.0,105.0,filler,,short,3.0,NO,156.13
18.0,73.0,106.0,filler,,short,4.0,NO,232.09
18.0,107.0,107.0,filler,,medium,8.0,NO,165.34
18.0,106.0,108.0,filler,,medium,10.0,NO,242.03
18.0,6.0,109.0,filler,,medium,8.0,NO,244.99
18.0,17.0,110.0,filler,,medium,8.0,NO,259.7
18.0,38.0,111.0,filler,,medium,7.0,NO,211.07
18.0,29.0,112.0,filler,,medium,6.0,NO,255.32
18.0,15.0,113.0,filler,,long,14.0,NO,231.29
18.0,79.0,114.0,filler,,long,13.0,NO,195.78
18.0,14.0,115.0,filler,,long,11.0,NO,220.66
18.0,21.0,116.0,filler,,long,12.0,NO,176.86
18.0,69.0,117.0,filler,,long,15.0,NO,266.7
18.0,2.0,118.0,filler,,long,15.0,NO,249.43
18.0,57.0,119.0,filler,,short,3.0,NO,214.52
18.0,24.0,120.0,filler,,short,2.0,NO,190.29
18.0,88.0,121.0,filler,,short,3.0,NO,122.34
18.0,34.0,122.0,filler,,short,5.0,NO,298.52
18.0,41.0,123.0,filler,,short,3.0,NO,259.98
18.0,16.0,124.0,filler,,short,3.0,NO,234.08
18.0,49.0,125.0,filler,,medium,8.0,NO,143.55
18.0,28.0,126.0,filler,,medium,8.0,NO,175.91
18.0,92.0,127.0,filler,,medium,10.0,NO,207.62
18.0,52.0,128.0,filler,,medium,8.0,NO,483.65
18.0,5.0,129.0,filler,,medium,9.0,NO,428.72
18.0,36.0,130.0,filler,,medium,9.0,NO,408.99
18.0,7.0,131.0,filler,,long,16.0,NO,302.08
18.0,81.0,132.0,filler,,long,13.0,NO,183.32
18.0,103.0,133.0,filler,,long,12.0,NO,304.15
18.0,84.0,134.0,filler,,long,14.0,NO,363.6
18.0,102.0,135.0,filler,,long,11.0,NO,328.77
18.0,56.0,136.0,filler,,long,14.0,NO,348.5
18.0,37.0,137.0,filler,,short,4.0,NO,322.55
18.0,54.0,138.0,filler,,short,3.0,NO,161.19
18.0,104.0,139.0,filler,,short,5.0,NO,606.1
18.0,42.0,140.0,filler,,short,3.0,NO,189.78
18.0,51.0,141.0,filler,,short,4.0,NO,497.39
18.0,77.0,142.0,filler,,short,4.0,NO,472.04
18.0,61.0,143.0,filler,,medium,10.0,NO,163.09
18.0,90.0,144.0,filler,,medium,6.0,NO,453.14
18.0,4.0,145.0,filler,,medium,7.0,NO,473.51
18.0,65.0,146.0,filler,,medium,9.0,NO,114.05
18.0,97.0,147.0,filler,,medium,9.0,NO,246.43
18.0,55.0,148.0,filler,,medium,8.0,NO,245.12
18.0,72.0,149.0,filler,,long,11.0,NO,351.35
18.0,64.0,150.0,filler,,long,15.0,NO,107.08
18.0,63.0,151.0,filler,,long,13.0,NO,160.78
18.0,59.0,152.0,filler,,long,11.0,NO,758.71
18.0,31.0,153.0,filler,,long,13.0,NO,353.27
18.0,11.0,154.0,filler,,long,14.0,NO,178.81
19.0,75.0,1.0,experimental,high,short,5.0,YES,177.53
19.0,7.0,2.0,experimental,high,short,4.0,YES,177.84
19.0,39.0,3.0,experimental,high,short,3.0,YES,107.12
19.0,22.0,4.0,experimental,high,short,4.0,YES,137.43
19.0,43.0,5.0,experimental,high,short,4.0,YES,172.47
19.0,87.0,6.0,experimental,high,short,4.0,YES,207.12
19.0,101.0,7.0,experimental,high,medium,10.0,YES,155.93
19.0,84.0,8.0,experimental,high,medium,9.0,YES,190.54
19.0,20.0,9.0,experimental,high,medium,9.0,YES,154.81
19.0,34.0,10.0,experimental,high,medium,7.0,YES,156.67000000000002
19.0,13.0,11.0,experimental,high,medium,6.0,YES,167.9
19.0,37.0,12.0,experimental,high,medium,9.0,YES,235.86
19.0,30.0,13.0,experimental,high,long,14.0,YES,207.69
19.0,70.0,14.0,experimental,high,long,11.0,YES,210.72
19.0,54.0,15.0,experimental,high,long,13.0,YES,197.83
19.0,88.0,16.0,experimental,high,long,14.0,YES,257.31
19.0,71.0,17.0,experimental,high,long,12.0,YES,258.95
19.0,90.0,18.0,experimental,high,long,13.0,YES,238.3
19.0,106.0,19.0,experimental,medium,short,3.0,YES,219.67
19.0,59.0,20.0,experimental,medium,short,4.0,YES,283.82
19.0,103.0,21.0,experimental,medium,short,3.0,YES,155.57999999999998
19.0,35.0,22.0,experimental,medium,short,2.0,YES,252.54
19.0,62.0,23.0,experimental,medium,short,5.0,YES,272.98
19.0,60.0,24.0,experimental,medium,short,3.0,YES,297.78
19.0,42.0,25.0,experimental,medium,medium,8.0,YES,249.4
19.0,78.0,26.0,experimental,medium,medium,8.0,YES,291.01
19.0,94.0,27.0,experimental,medium,medium,7.0,YES,242.94
19.0,55.0,28.0,experimental,medium,medium,9.0,YES,201.23
19.0,91.0,29.0,experimental,medium,medium,10.0,NO,289.84000000000003
19.0,31.0,30.0,experimental,medium,medium,7.0,YES,266.25
19.0,83.0,31.0,experimental,medium,long,14.0,YES,280.81
19.0,67.0,32.0,experimental,medium,long,16.0,YES,288.2
19.0,58.0,33.0,experimental,medium,long,14.0,YES,204.54
19.0,72.0,34.0,experimental,medium,long,15.0,NO,367.48
19.0,49.0,35.0,experimental,medium,long,16.0,YES,224.91
19.0,66.0,36.0,experimental,medium,long,14.0,YES,228.96
19.0,69.0,37.0,experimental,low,short,2.0,YES,147.76999999999998
19.0,86.0,38.0,experimental,low,short,5.0,YES,237.17
19.0,24.0,39.0,experimental,low,short,3.0,YES,271.2
19.0,27.0,40.0,experimental,low,short,5.0,YES,325.19
19.0,96.0,41.0,experimental,low,short,4.0,YES,371.94
19.0,74.0,42.0,experimental,low,short,3.0,YES,369.42
19.0,64.0,43.0,experimental,low,medium,9.0,YES,147.39
19.0,14.0,44.0,experimental,low,medium,7.0,YES,275.78999999999996
19.0,98.0,45.0,experimental,low,medium,9.0,YES,354.53
19.0,99.0,46.0,experimental,low,medium,7.0,YES,750.85
19.0,95.0,47.0,experimental,low,medium,7.0,YES,382.76
19.0,1.0,48.0,experimental,low,medium,9.0,YES,256.69
19.0,36.0,49.0,experimental,low,long,15.0,YES,207.36
19.0,68.0,50.0,experimental,low,long,13.0,YES,268.28
19.0,5.0,51.0,experimental,low,long,13.0,YES,157.45
19.0,80.0,52.0,experimental,low,long,13.0,YES,289.62
19.0,10.0,53.0,experimental,low,long,12.0,YES,254.22
19.0,23.0,54.0,experimental,low,long,13.0,YES,353.12
19.0,97.0,101.0,filler,,short,3.0,NO,146.34
